// General information: 
//  MT Manager version: 2019.0.1 
//  XDA version: 2019.0.1 build 2740 rev 84096 built on 2019-01-30
// Device information: 
//  DeviceId: 077002EC
//  ProductCode: MTi-G-700-2A5G4
//  Firmware Version: 1.4.1
//  Hardware Version: 2.0.0
// Device settings: 
//  Filter Profile: GeneralMag(3.17)
//  Option Flags: Orientation Smoother Disabled, AHS Disabled, ICC Disabled
//  GNSS Platform: Portable
// Coordinate system: ENU
PacketCounter,UTC_Nano,UTC_Year,UTC_Month,UTC_Day,UTC_Hour,UTC_Minute,UTC_Second,UTC_Valid,Acc_X,Acc_Y,Acc_Z,Gyr_X,Gyr_Y,Gyr_Z,Mag_X,Mag_Y,Mag_Z,Roll,Pitch,Yaw
00001,75400000,1970,1,1,0,21,31,0,-0.261916,0.268292,9.691383,0.004427,-0.029954,0.077049,0.534280,0.340387,0.093628,1.068502,2.754830,54.131207
00002,85400000,1970,1,1,0,21,31,0,-0.250650,0.253914,9.713252,0.003870,-0.033078,0.071057,0.531371,0.334868,0.093361,1.076480,2.733567,54.171848
00003,95400000,1970,1,1,0,21,31,0,-0.299194,0.240171,9.712844,0.006371,-0.031675,0.060515,0.528463,0.329349,0.093095,1.085594,2.713212,54.206409
00004,105400000,1970,1,1,0,21,31,0,-0.379081,0.250372,9.657318,0.001960,-0.033740,0.059463,0.525687,0.340864,0.098027,1.092138,2.691679,54.240250
00005,115400000,1970,1,1,0,21,31,0,-0.401196,0.273569,9.613955,-0.002427,-0.045588,0.059773,0.534063,0.332005,0.093573,1.096156,2.663356,54.271664
00006,125400000,1970,1,1,0,21,31,0,-0.449704,0.324108,9.557531,-0.011409,-0.047174,0.061746,0.528980,0.337461,0.088060,1.095064,2.634098,54.307121
00007,135400000,1970,1,1,0,21,31,0,-0.457069,0.337160,9.547902,-0.035220,-0.016475,0.077218,0.528306,0.335207,0.098221,1.080742,2.622266,54.349682
00008,145400000,1970,1,1,0,21,31,0,-0.388125,0.292813,9.537869,-0.023570,0.036280,0.080734,0.528535,0.332143,0.093113,1.073220,2.640623,54.395489
00009,155400000,1970,1,1,0,21,31,0,-0.349622,0.197729,9.645349,-0.047340,0.069427,0.078687,0.533985,0.334934,0.096136,1.052063,2.678000,54.440887
00010,165400000,1970,1,1,0,21,31,0,-0.407920,0.119059,9.809364,-0.055563,0.071343,0.070723,0.531516,0.340456,0.093398,1.026011,2.716578,54.481640
00011,175400000,1970,1,1,0,21,31,0,-0.566619,0.048644,9.956799,-0.063910,0.059525,0.060068,0.530992,0.338067,0.101014,0.994901,2.748514,54.515034
00012,185400000,1970,1,1,0,21,31,0,-0.697801,-0.009829,10.094314,-0.051303,0.047189,0.051664,0.530998,0.332344,0.098433,0.970793,2.773480,54.544140
00013,195400000,1970,1,1,0,21,31,0,-0.787026,-0.084953,10.182522,-0.025397,0.025262,0.049103,0.538917,0.329614,0.104194,0.961454,2.785920,54.572384
00014,205400000,1970,1,1,0,21,31,0,-0.789317,-0.103599,10.239198,-0.001409,-0.003789,0.052015,0.530926,0.329550,0.098415,0.965927,2.781695,54.602959
00015,215400000,1970,1,1,0,21,31,0,-0.759423,-0.023354,10.229476,0.028798,-0.042863,0.049531,0.525693,0.335141,0.095446,0.987611,2.755107,54.630062
00016,225400000,1970,1,1,0,21,31,0,-0.712060,0.033638,10.104261,0.052065,-0.069325,0.039871,0.533913,0.332140,0.096118,1.022328,2.713446,54.649914
00017,235400000,1970,1,1,0,21,31,0,-0.723353,0.109846,9.890059,0.058434,-0.085000,0.035972,0.533840,0.329346,0.096100,1.060564,2.662834,54.669552
00018,245400000,1970,1,1,0,21,31,0,-0.715917,0.213465,9.712335,0.049257,-0.084036,0.044634,0.531444,0.337662,0.093380,1.093749,2.612675,54.694199
00019,255400000,1970,1,1,0,21,31,0,-0.683257,0.226290,9.643521,0.047750,-0.063788,0.054734,0.531371,0.334868,0.093361,1.126326,2.573993,54.722801
00020,265400000,1970,1,1,0,21,31,0,-0.702317,0.291068,9.715224,0.017629,-0.041505,0.070272,0.528390,0.326555,0.093077,1.142038,2.547889,54.761600
00021,275400000,1970,1,1,0,21,31,0,-0.664986,0.243388,9.824005,-0.005448,-0.016285,0.071805,0.531149,0.332209,0.095888,1.144566,2.536212,54.802624
00022,285400000,1970,1,1,0,21,31,0,-0.729332,0.221188,9.778491,-0.009951,0.004326,0.080089,0.531455,0.326216,0.088217,1.144733,2.536248,54.847538
00023,295400000,1970,1,1,0,21,31,0,-0.701024,0.270436,9.899544,-0.008589,0.028854,0.084656,0.544523,0.326547,0.102091,1.145814,2.550284,54.896374
00024,305400000,1970,1,1,0,21,31,0,-0.777473,0.183400,9.940783,-0.000598,0.030510,0.081085,0.533919,0.326417,0.093537,1.151398,2.565310,54.944351
00025,315400000,1970,1,1,0,21,31,0,-0.887805,0.210235,9.924431,0.012965,0.023009,0.084049,0.544680,0.320689,0.096965,1.164835,2.576003,54.991623
00026,325400000,1970,1,1,0,21,31,0,-0.915272,0.191961,9.828494,0.026798,0.008720,0.086918,0.531004,0.326621,0.095852,1.186270,2.578469,55.042736
00027,335400000,1970,1,1,0,21,31,0,-0.802647,0.221579,9.718986,0.029893,0.001512,0.099571,0.531155,0.326486,0.093307,1.209802,2.576638,55.097427
00028,345400000,1970,1,1,0,21,31,0,-0.602683,0.222729,9.761570,0.027985,-0.000103,0.107858,0.539369,0.329208,0.096560,1.232451,2.573763,55.157677
00029,355400000,1970,1,1,0,21,31,0,-0.488242,0.213025,9.834929,0.025469,-0.004366,0.114331,0.539452,0.320556,0.091416,1.253819,2.568347,55.222420
00030,365400000,1970,1,1,0,21,31,0,-0.476015,0.219409,9.786213,0.023166,-0.006074,0.112804,0.542439,0.323146,0.089119,1.273822,2.561947,55.287430
00031,375400000,1970,1,1,0,21,31,0,-0.509926,0.292740,9.800070,0.018173,-0.011408,0.119518,0.530860,0.321033,0.095815,1.291122,2.552384,55.355419
00032,385400000,1970,1,1,0,21,31,0,-0.436523,0.273959,9.727052,0.029052,-0.024570,0.114327,0.530938,0.318104,0.093252,1.314501,2.535326,55.419067
00033,395400000,1970,1,1,0,21,31,0,-0.337201,0.272802,9.573030,0.012449,-0.035804,0.116708,0.536237,0.321030,0.098820,1.328400,2.511780,55.484665
00034,405400000,1970,1,1,0,21,31,0,-0.256856,0.280614,9.532249,-0.016329,-0.028863,0.135083,0.539675,0.323215,0.088889,1.326252,2.491958,55.561016
00035,415400000,1970,1,1,0,21,31,0,-0.313610,0.229883,9.599998,-0.048645,-0.020641,0.156092,0.536321,0.312378,0.093676,1.306092,2.476582,55.649334
00036,425400000,1970,1,1,0,21,31,0,-0.334367,0.099114,9.709661,-0.084001,-0.022159,0.188385,0.533924,0.320694,0.090956,1.266446,2.459967,55.757191
00037,435400000,1970,1,1,0,21,31,0,-0.355501,0.035027,9.942765,-0.100284,-0.043277,0.221844,0.539308,0.314968,0.091379,1.218235,2.430921,55.882008
00038,445400000,1970,1,1,0,21,31,0,-0.326742,0.109841,10.211467,-0.037353,-0.062894,0.208728,0.539380,0.317762,0.091397,1.205676,2.390863,56.000702
00039,455400000,1970,1,1,0,21,31,0,-0.303819,0.078884,10.240003,0.082400,-0.089372,0.152248,0.536321,0.312378,0.093676,1.260284,2.336292,56.085747
00040,465400000,1970,1,1,0,21,31,0,-0.221054,0.138558,9.908045,0.118810,-0.099601,0.113569,0.533852,0.317900,0.090937,1.334766,2.276264,56.148979
00041,475400000,1970,1,1,0,21,31,0,-0.157135,0.251323,9.679042,0.107659,-0.079582,0.099618,0.536622,0.312108,0.088586,1.402493,2.227814,56.203094
00042,485400000,1970,1,1,0,21,31,0,-0.113021,0.379164,9.470291,0.130686,-0.068558,0.095619,0.528402,0.315108,0.087915,1.483284,2.185662,56.256664
00043,495400000,1970,1,1,0,21,31,0,0.065964,0.392361,9.460166,0.096891,-0.046498,0.083164,0.536688,0.320625,0.091186,1.544422,2.156265,56.301720
00044,505400000,1970,1,1,0,21,31,0,0.121587,0.353436,9.638212,0.077657,-0.048239,0.067998,0.533936,0.309248,0.085793,1.594187,2.126062,56.338558
00045,515400000,1970,1,1,0,21,31,0,0.106507,0.254876,9.768587,0.070054,-0.069880,0.043718,0.536321,0.312378,0.093676,1.639053,2.083817,56.362728
00046,525400000,1970,1,1,0,21,31,0,0.056566,0.259236,9.902068,0.076451,-0.093982,0.024839,0.531244,0.312110,0.085582,1.687158,2.028060,56.374954
00047,535400000,1970,1,1,0,21,31,0,-0.030153,0.216872,9.930960,0.096435,-0.106599,0.026956,0.533774,0.320829,0.093500,1.746736,1.965024,56.387421
00048,545400000,1970,1,1,0,21,31,0,-0.055163,0.381061,9.852356,0.117542,-0.090620,0.020281,0.542674,0.314359,0.081430,1.818270,1.911242,56.395481
00049,555400000,1970,1,1,0,21,31,0,-0.032537,0.411762,9.656880,0.116710,-0.072706,0.017137,0.541927,0.309311,0.091573,1.889269,1.867762,56.404278
00050,565400000,1970,1,1,0,21,31,0,0.000820,0.501733,9.589640,0.096375,-0.070882,0.018414,0.545354,0.322942,0.086804,1.948637,1.825291,56.414063
00051,575400000,1970,1,1,0,21,31,0,-0.021651,0.523338,9.507869,0.073167,-0.096547,0.016987,0.534460,0.311636,0.078177,1.994658,1.768140,56.420155
00052,585400000,1970,1,1,0,21,31,0,0.058981,0.530702,9.581498,0.036587,-0.104214,0.004567,0.539693,0.306046,0.081146,2.019494,1.706842,56.419918
00053,595400000,1970,1,1,0,21,31,0,0.031330,0.494150,9.746551,0.025450,-0.097735,0.003693,0.545516,0.311361,0.079097,2.037941,1.649265,56.420452
00054,605400000,1970,1,1,0,21,31,0,-0.140664,0.427889,9.759996,0.021784,-0.098868,0.007302,0.540205,0.319881,0.078692,2.054348,1.590963,56.422287
00055,615400000,1970,1,1,0,21,31,0,-0.237087,0.457875,9.762744,0.028550,-0.097332,0.012280,0.548569,0.322468,0.079400,2.074708,1.533437,56.425278
00056,625400000,1970,1,1,0,21,31,0,-0.148067,0.512858,9.729940,0.031178,-0.092726,0.014926,0.537073,0.311703,0.080952,2.096614,1.478490,56.430813
00057,635400000,1970,1,1,0,21,31,0,-0.075665,0.592827,9.632842,0.029748,-0.094007,0.017755,0.542746,0.317153,0.081448,2.117736,1.422749,56.438438
00058,645400000,1970,1,1,0,21,31,0,0.008601,0.602630,9.480108,-0.008088,-0.078285,0.022169,0.534682,0.314295,0.075651,2.117247,1.375909,56.448654
00059,655400000,1970,1,1,0,21,31,0,-0.066722,0.546024,9.369935,-0.072033,-0.038262,0.031751,0.534225,0.320424,0.085866,2.080267,1.351789,56.464890
00060,665400000,1970,1,1,0,21,31,0,-0.159529,0.535670,9.640606,-0.089673,-0.007275,0.027832,0.544992,0.308972,0.086713,2.033143,1.345500,56.479069
00061,675400000,1970,1,1,0,21,31,0,-0.207838,0.344148,9.964821,-0.076440,0.000707,0.012492,0.545438,0.314290,0.081660,1.993398,1.344103,56.486862
00062,685400000,1970,1,1,0,21,31,0,-0.327935,0.276856,10.209546,-0.041939,-0.007427,0.004646,0.534303,0.317495,0.083303,1.973314,1.338205,56.488811
00063,695400000,1970,1,1,0,21,31,0,-0.442475,0.290757,10.273890,0.014479,-0.023801,-0.005142,0.542457,0.305977,0.081376,1.985416,1.323128,56.483692
00064,705400000,1970,1,1,0,21,31,0,-0.461782,0.356489,10.046719,0.054544,-0.040608,-0.008386,0.540427,0.322540,0.076165,2.020422,1.298496,56.478443
00065,715400000,1970,1,1,0,21,31,0,-0.300692,0.469045,9.807238,0.062297,-0.050319,-0.002998,0.542969,0.319812,0.078922,2.059937,1.268203,56.473732
00066,725400000,1970,1,1,0,21,31,0,-0.047063,0.573139,9.711892,0.045301,-0.045922,-0.000109,0.545889,0.313885,0.074026,2.089757,1.240366,56.471836
00067,735400000,1970,1,1,0,21,31,0,0.169113,0.615404,9.681060,0.016467,-0.021110,-0.009290,0.548190,0.325668,0.087053,2.102956,1.226928,56.465973
00068,745400000,1970,1,1,0,21,31,0,0.126280,0.573013,9.705297,-0.010707,0.004420,-0.017809,0.534538,0.308707,0.075614,2.100495,1.228287,56.454521
00069,755400000,1970,1,1,0,21,31,0,0.012028,0.477839,9.866385,-0.036043,0.018467,-0.031916,0.548725,0.316610,0.074274,2.083351,1.237978,56.436256
00070,765400000,1970,1,1,0,21,31,0,-0.080323,0.333383,10.012043,-0.030574,0.012808,-0.025619,0.537368,0.317156,0.078444,2.069417,1.244289,56.421467
00071,775400000,1970,1,1,0,21,31,0,-0.191161,0.262650,10.114583,-0.020866,0.013842,-0.022504,0.551345,0.310953,0.074468,2.061084,1.251123,56.407536
00072,785400000,1970,1,1,0,21,31,0,-0.295496,0.207097,10.077584,-0.000965,0.005841,-0.024758,0.543047,0.316883,0.076359,2.064119,1.253421,56.393986
00073,795400000,1970,1,1,0,21,31,0,-0.371235,0.180720,10.016066,-0.004860,-0.005117,-0.020828,0.537441,0.319950,0.078462,2.064963,1.249367,56.380672
00074,805400000,1970,1,1,0,21,31,0,-0.382343,0.174874,10.033235,0.023763,-0.014285,-0.012731,0.537525,0.311297,0.073318,2.082307,1.239896,56.371353
00075,815400000,1970,1,1,0,21,31,0,-0.472266,0.180234,9.983728,0.026392,-0.017732,0.001478,0.539982,0.317222,0.081218,2.101327,1.228163,56.371464
00076,825400000,1970,1,1,0,21,31,0,-0.530288,0.254799,9.845143,0.036850,-0.021102,0.012237,0.548135,0.305704,0.079291,2.126469,1.214273,56.377041
00077,835400000,1970,1,1,0,21,31,0,-0.515490,0.311396,9.743863,0.033751,-0.019842,0.020880,0.534839,0.308437,0.070525,2.149936,1.200922,56.389809
00078,845400000,1970,1,1,0,21,31,0,-0.453545,0.344042,9.668767,0.023831,-0.020693,0.029611,0.528486,0.306456,0.082770,2.167822,1.186893,56.405090
00079,855400000,1970,1,1,0,21,31,0,-0.438275,0.307889,9.566465,-0.020377,-0.025459,0.050219,0.542752,0.311430,0.078867,2.160613,1.169693,56.432053
00080,865400000,1970,1,1,0,21,31,0,-0.426157,0.323771,9.569218,-0.034679,-0.016826,0.075597,0.548280,0.311292,0.079327,2.145503,1.156896,56.474407
00081,875400000,1970,1,1,0,21,31,0,-0.420653,0.276942,9.667299,-0.039315,0.002251,0.085357,0.540066,0.308570,0.076074,2.127851,1.154828,56.523067
00082,885400000,1970,1,1,0,21,31,0,-0.419461,0.349502,9.694873,-0.018414,0.000202,0.083835,0.534315,0.306048,0.078141,2.122155,1.151633,56.570156
00083,895400000,1970,1,1,0,21,31,0,-0.414364,0.362620,9.601458,-0.014853,0.001471,0.077123,0.540042,0.331462,0.086399,2.118420,1.149312,56.613335
00084,905400000,1970,1,1,0,21,31,0,-0.361421,0.394527,9.549109,-0.009605,0.007399,0.075046,0.539699,0.300323,0.078564,2.117670,1.150434,56.653454
00085,915400000,1970,1,1,0,21,31,0,-0.240978,0.390453,9.526484,-0.026782,0.008685,0.076283,0.540138,0.311364,0.076093,2.107094,1.152273,56.698215
00086,925400000,1970,1,1,0,21,31,0,-0.106586,0.329037,9.539064,-0.044893,0.016402,0.071097,0.542902,0.311295,0.076323,2.086089,1.158651,56.738373
00087,935400000,1970,1,1,0,21,31,0,-0.045323,0.253501,9.600828,-0.059132,0.024960,0.072094,0.548135,0.305704,0.079291,2.056945,1.169928,56.779400
00088,945400000,1970,1,1,0,21,31,0,-0.057838,0.178520,9.736051,-0.073088,0.027183,0.079672,0.545227,0.300185,0.079024,2.019910,1.182340,56.825581
00089,955400000,1970,1,1,0,21,31,0,-0.032660,0.188565,9.835681,-0.070730,0.033250,0.086684,0.547985,0.305839,0.081836,1.984316,1.198116,56.875751
00090,965400000,1970,1,1,0,21,31,0,0.026428,0.207468,9.901726,-0.052199,0.038896,0.081346,0.540138,0.311364,0.076093,1.959291,1.217255,56.922276
00091,975400000,1970,1,1,0,21,31,0,0.064377,0.273752,9.845980,-0.037707,0.044595,0.070672,0.550966,0.314152,0.082120,1.942456,1.239881,56.961861
00092,985400000,1970,1,1,0,21,31,0,0.046495,0.312891,9.752239,-0.040881,0.044446,0.059114,0.545149,0.303114,0.081587,1.923676,1.262652,56.995674
00093,995400000,1970,1,1,0,21,31,0,-0.049240,0.339713,9.717251,-0.065796,0.037967,0.056374,0.539843,0.305911,0.078601,1.890593,1.281779,57.028370
00094,5400000,1970,1,1,0,21,32,0,-0.091533,0.310999,9.795589,-0.078017,0.028947,0.053012,0.534309,0.311771,0.080722,1.850472,1.295821,57.058167
00095,15400000,1970,1,1,0,21,32,0,-0.098421,0.247887,9.961249,-0.083208,0.033308,0.039880,0.539843,0.305911,0.078601,1.807211,1.312624,57.079819
00096,25400000,1970,1,1,0,21,32,0,-0.094999,0.156543,10.070335,-0.069366,0.019314,0.023055,0.534092,0.303389,0.080667,1.771661,1.321727,57.092861
00097,35400000,1970,1,1,0,21,32,0,-0.086640,0.120583,10.064972,-0.053306,0.001235,0.013854,0.536706,0.303456,0.083442,1.745184,1.320644,57.100025
00098,45400000,1970,1,1,0,21,32,0,-0.103782,0.184802,10.021513,-0.037195,-0.002728,0.020334,0.531846,0.311570,0.075403,1.728018,1.317180,57.111019
00099,55400000,1970,1,1,0,21,32,0,-0.156421,0.266110,9.990616,-0.029207,0.014940,0.027772,0.545299,0.302979,0.079043,1.715533,1.323708,57.125202
00100,65400000,1970,1,1,0,21,32,0,-0.173905,0.228805,10.095496,-0.017433,0.036788,0.025387,0.536628,0.306385,0.086005,1.709775,1.342792,57.140995
00101,75400000,1970,1,1,0,21,32,0,-0.236492,0.162277,10.219242,-0.005884,0.003177,0.009443,0.545076,0.300320,0.081569,1.710406,1.342898,57.145386
00102,85400000,1970,1,1,0,21,32,0,-0.331114,0.189287,10.050314,0.024735,-0.034696,0.005425,0.542240,0.297595,0.081321,1.728512,1.321385,57.148506
00103,95400000,1970,1,1,0,21,32,0,-0.410079,0.330592,9.834988,0.031869,-0.039165,0.015467,0.545438,0.314290,0.081660,1.750835,1.297135,57.156868
00104,105400000,1970,1,1,0,21,32,0,-0.417672,0.436758,9.680567,0.028936,-0.027322,0.025786,0.539398,0.300593,0.083654,1.771610,1.279485,57.168846
00105,115400000,1970,1,1,0,21,32,0,-0.324233,0.474398,9.626905,0.011041,-0.021124,0.035207,0.545594,0.308432,0.076534,1.782251,1.265219,57.188347
00106,125400000,1970,1,1,0,21,32,0,-0.172488,0.527763,9.612222,-0.002378,-0.016925,0.041944,0.545221,0.305908,0.081606,1.785290,1.253237,57.211006
00107,135400000,1970,1,1,0,21,32,0,-0.038398,0.531352,9.556980,-0.001689,-0.006019,0.032745,0.545149,0.303114,0.081587,1.788612,1.247661,57.229015
00108,145400000,1970,1,1,0,21,32,0,-0.026661,0.464054,9.510168,-0.027579,0.007797,0.039393,0.545522,0.305638,0.076516,1.777193,1.249876,57.251377
00109,155400000,1970,1,1,0,21,32,0,-0.002250,0.374974,9.562191,-0.044887,0.023534,0.053893,0.537308,0.302915,0.073263,1.756048,1.260854,57.281803
00110,165400000,1970,1,1,0,21,32,0,0.025481,0.295213,9.700486,-0.051150,0.053002,0.068967,0.556722,0.310951,0.077472,1.731528,1.288454,57.320976
00111,175400000,1970,1,1,0,21,32,0,0.059313,0.235303,9.819737,-0.038532,0.072049,0.072796,0.559414,0.308088,0.077684,1.714318,1.326909,57.363419
00112,185400000,1970,1,1,0,21,32,0,0.031254,0.248994,9.881615,-0.032370,0.066716,0.063363,0.548202,0.314221,0.081890,1.700536,1.362479,57.400692
00113,195400000,1970,1,1,0,21,32,0,0.025658,0.301201,9.821203,-0.025240,0.039313,0.050177,0.545438,0.314290,0.081660,1.690665,1.382582,57.428108
00114,205400000,1970,1,1,0,21,32,0,0.038339,0.389412,9.704368,-0.036480,0.019559,0.040349,0.539771,0.303117,0.078583,1.674218,1.391544,57.449780
00115,215400000,1970,1,1,0,21,32,0,0.089710,0.409984,9.719896,-0.044953,0.013475,0.025060,0.542529,0.308771,0.081394,1.652705,1.397278,57.463844
00116,225400000,1970,1,1,0,21,32,0,0.105564,0.354039,9.773903,-0.051308,0.013241,0.009718,0.547756,0.308903,0.086943,1.627339,1.403134,57.468529
00117,235400000,1970,1,1,0,21,32,0,0.099540,0.212010,9.908290,-0.056948,0.007609,-0.007643,0.539693,0.306046,0.081146,1.598496,1.406040,57.463810
00118,245400000,1970,1,1,0,21,32,0,0.018748,0.130930,9.975290,-0.052268,-0.013704,-0.014524,0.545299,0.302979,0.079043,1.572231,1.396844,57.454281
00119,255400000,1970,1,1,0,21,32,0,-0.392337,0.125776,9.412629,0.085415,0.033063,-0.032140,0.542240,0.297595,0.081321,1.624620,1.414714,57.436474
00120,265400000,1970,1,1,0,21,32,0,-0.043498,0.144178,9.998591,-0.108176,0.045623,0.045367,0.553513,0.305702,0.082296,1.567195,1.438543,57.463463
00121,275400000,1970,1,1,0,21,32,0,-0.336181,0.138103,9.380916,0.013246,0.103226,0.009313,0.550972,0.308429,0.079539,1.578848,1.495939,57.470196
00122,285400000,1970,1,1,0,21,32,0,-0.239003,0.241255,9.997533,-0.010720,0.078916,0.044924,0.539771,0.303117,0.078583,1.577307,1.538849,57.496082
00123,295400000,1970,1,1,0,21,32,0,-0.212103,0.257805,9.685638,-0.020169,0.060303,0.015979,0.545215,0.311631,0.084187,1.569907,1.571558,57.504852
00124,305400000,1970,1,1,0,21,32,0,-0.158593,0.264374,9.764692,-0.020803,0.051320,0.013520,0.536856,0.303321,0.080897,1.562111,1.599157,57.511608
00125,315400000,1970,1,1,0,21,32,0,-0.213930,0.268440,9.784374,-0.032012,0.027590,-0.015905,0.533948,0.297801,0.080631,1.547410,1.613623,57.501862
00126,325400000,1970,1,1,0,21,32,0,-0.121649,0.116282,9.811732,-0.077819,-0.006130,-0.016169,0.545154,0.297391,0.079006,1.506445,1.608775,57.492184
00127,335400000,1970,1,1,0,21,32,0,-0.163669,0.040104,10.058977,-0.092663,-0.038387,-0.015578,0.547979,0.311562,0.084417,1.456972,1.585436,57.483452
00128,345400000,1970,1,1,0,21,32,0,-0.279953,-0.025543,10.108463,-0.097205,-0.051907,-0.009601,0.544848,0.303384,0.086677,1.404989,1.554253,57.475552
00129,355400000,1970,1,1,0,21,32,0,-0.437233,0.051978,10.012934,-0.036067,-0.046026,-0.012959,0.544703,0.297796,0.086641,1.387986,1.526485,57.467117
00130,365400000,1970,1,1,0,21,32,0,-0.501129,0.181028,9.937474,-0.026637,-0.025043,0.000322,0.539843,0.305911,0.078601,1.376597,1.510553,57.467472
00131,375400000,1970,1,1,0,21,32,0,-0.397745,0.228759,9.940584,-0.008401,-0.009526,0.002866,0.542312,0.300389,0.081339,1.375702,1.503473,57.466911
00132,385400000,1970,1,1,0,21,32,0,-0.287174,0.277382,9.913948,-0.011445,-0.003376,-0.004110,0.550448,0.306041,0.087155,1.372958,1.500015,57.464268
00133,395400000,1970,1,1,0,21,32,0,-0.290997,0.267808,9.893616,-0.020372,0.012164,-0.006445,0.550376,0.303246,0.087137,1.365072,1.505493,57.460339
00134,405400000,1970,1,1,0,21,32,0,-0.301630,0.120778,10.219249,-0.026648,-0.019302,-0.016261,0.545137,0.314560,0.086750,1.353435,1.493080,57.450798
00135,415400000,1970,1,1,0,21,32,0,-0.262592,0.055963,10.201564,-0.010589,-0.067693,-0.032048,0.553067,0.300384,0.087349,1.350750,1.453162,57.428436
00136,425400000,1970,1,1,0,21,32,0,-0.300047,0.106374,10.140530,0.010696,-0.088986,-0.026446,0.547907,0.308768,0.084399,1.360346,1.400973,57.413738
00137,435400000,1970,1,1,0,21,32,0,-0.305813,0.173058,10.140039,0.027019,-0.083956,-0.020863,0.539693,0.306046,0.081146,1.379389,1.351593,57.399052
00138,445400000,1970,1,1,0,21,32,0,-0.166884,0.210390,10.076473,0.046968,-0.076402,-0.019153,0.542529,0.308771,0.081394,1.409898,1.306524,57.385159
00139,455400000,1970,1,1,0,21,32,0,-0.080350,0.263676,9.961780,0.041295,-0.081968,-0.025920,0.539699,0.300323,0.078564,1.437077,1.258367,57.367558
00140,465400000,1970,1,1,0,21,32,0,-0.070174,0.359951,9.849481,0.030402,-0.095256,-0.036973,0.542529,0.308771,0.081394,1.457890,1.202766,57.345238
00141,475400000,1970,1,1,0,21,32,0,-0.222344,0.347866,9.705743,0.011915,-0.076118,-0.028858,0.548063,0.302910,0.079273,1.468235,1.158013,57.326023
00142,485400000,1970,1,1,0,21,32,0,-0.363224,0.374650,9.437646,-0.026316,-0.020508,-0.017633,0.545594,0.308432,0.076534,1.456829,1.144948,57.316681
00143,495400000,1970,1,1,0,21,32,0,-0.433656,0.424388,9.653051,-0.101394,0.054699,0.027834,0.539687,0.311769,0.083727,1.402961,1.174300,57.332165
00144,505400000,1970,1,1,0,21,32,0,-0.259005,0.309014,9.853864,-0.053770,0.056353,0.023790,0.547907,0.308768,0.084399,1.376339,1.204674,57.343845
00145,515400000,1970,1,1,0,21,32,0,-0.191449,0.314128,9.638673,-0.113238,0.081983,0.015699,0.539988,0.311499,0.078637,1.315562,1.249849,57.353836
00146,525400000,1970,1,1,0,21,32,0,-0.128230,0.289671,9.846492,-0.095584,0.046363,0.009815,0.536706,0.303456,0.083442,1.264821,1.274707,57.357868
00147,535400000,1970,1,1,0,21,32,0,-0.122184,0.149681,9.844437,-0.092656,-0.025697,-0.020904,0.542674,0.314359,0.081430,1.215348,1.258670,57.345222
00148,545400000,1970,1,1,0,21,32,0,-0.077778,0.186450,9.792841,-0.113585,-0.074371,-0.023306,0.536856,0.303321,0.080897,1.153850,1.214764,57.328953
00149,555400000,1970,1,1,0,21,32,0,-0.067982,0.197684,9.673606,-0.113469,-0.087505,-0.020470,0.539916,0.308705,0.078619,1.092463,1.163289,57.316338
00150,565400000,1970,1,1,0,21,32,0,-0.079016,0.305585,9.470158,-0.117222,-0.043914,-0.010781,0.548057,0.308633,0.081854,1.029057,1.136665,57.308716
00151,575400000,1970,1,1,0,21,32,0,-0.190118,0.291921,9.636080,-0.142190,-0.046194,-0.006889,0.550460,0.294594,0.081993,0.951392,1.108692,57.304699
00152,585400000,1970,1,1,0,21,32,0,-0.199559,0.218360,9.581141,-0.144324,-0.066968,-0.002726,0.544775,0.300590,0.086659,0.872556,1.068766,57.306019
00153,595400000,1970,1,1,0,21,32,0,-0.226527,0.142743,9.638628,-0.191101,-0.092722,0.005033,0.553368,0.300113,0.082259,0.766997,1.014021,57.307980
00154,605400000,1970,1,1,0,21,32,0,-0.095989,-0.053811,9.829261,-0.213317,-0.126050,0.014029,0.550899,0.305635,0.079521,0.648796,0.940120,57.316017
00155,615400000,1970,1,1,0,21,32,0,-0.082442,-0.065870,10.044398,-0.217854,-0.168364,-0.009003,0.545365,0.311496,0.081642,0.527777,0.842124,57.308704
00156,625400000,1970,1,1,0,21,32,0,-0.150459,-0.216846,9.976673,-0.252635,-0.196140,-0.008599,0.542301,0.311835,0.086502,0.386846,0.728195,57.300049
00157,635400000,1970,1,1,0,21,32,0,-0.200698,-0.291157,9.966816,-0.283565,-0.229080,0.010338,0.550827,0.302841,0.079503,0.228335,0.595321,57.302708
00158,645400000,1970,1,1,0,21,32,0,-0.237779,-0.056343,9.836791,-0.228067,-0.262764,0.028206,0.547991,0.300116,0.079254,0.101703,0.443130,57.319283
00159,655400000,1970,1,1,0,21,32,0,-0.106635,0.032277,9.746635,-0.216900,-0.242981,0.042481,0.542836,0.302778,0.073723,-0.018516,0.302304,57.343906
00160,665400000,1970,1,1,0,21,32,0,0.006148,0.312810,9.623906,-0.220633,-0.198033,0.042446,0.542830,0.308501,0.076304,-0.140922,0.187280,57.367039
00161,675400000,1970,1,1,0,21,32,0,0.159193,0.130907,9.492846,-0.168720,-0.152962,0.029447,0.542463,0.300254,0.078794,-0.233645,0.098101,57.381916
00162,685400000,1970,1,1,0,21,32,0,0.207453,0.148491,9.550675,-0.124065,-0.124208,-0.001071,0.551345,0.310953,0.074468,-0.300819,0.025338,57.381355
00163,695400000,1970,1,1,0,21,32,0,0.216696,-0.033137,9.681893,-0.203945,-0.126481,-0.002476,0.550677,0.302976,0.082047,-0.413759,-0.048733,57.379040
00164,705400000,1970,1,1,0,21,32,0,0.265739,-0.250779,9.704710,-0.250656,-0.114127,0.019692,0.539994,0.305776,0.076056,-0.553477,-0.115630,57.391102
00165,715400000,1970,1,1,0,21,32,0,0.176572,-0.386416,9.948515,-0.261276,-0.125145,0.018181,0.553290,0.303043,0.084822,-0.699295,-0.188820,57.400398
00166,725400000,1970,1,1,0,21,32,0,-0.054026,-0.277326,9.965119,-0.332731,-0.128550,0.040398,0.550821,0.308564,0.082084,-0.886119,-0.263756,57.425030
00167,735400000,1970,1,1,0,21,32,0,0.001401,-0.178472,9.957672,-0.310356,-0.124615,0.051653,0.545371,0.305773,0.079061,-1.060190,-0.336252,57.454540
00168,745400000,1970,1,1,0,21,32,0,-0.148501,-0.160609,9.811853,-0.307758,-0.106446,0.053028,0.548286,0.305569,0.076746,-1.232811,-0.398233,57.484753
00169,755400000,1970,1,1,0,21,32,0,-0.167874,-0.138700,9.636712,-0.304066,-0.089517,0.059092,0.539554,0.294735,0.078528,-1.403372,-0.450343,57.518944
00170,765400000,1970,1,1,0,21,32,0,-0.131931,-0.303250,9.909948,-0.260892,-0.107899,0.040839,0.534466,0.305913,0.075596,-1.549142,-0.513153,57.543915
00171,775400000,1970,1,1,0,21,32,0,-0.062565,-0.268487,9.949803,-0.233055,-0.155752,0.018147,0.550604,0.300182,0.082029,-1.678883,-0.603672,57.553867
00172,785400000,1970,1,1,0,21,32,0,0.074292,-0.311475,9.864646,-0.170421,-0.154602,0.004255,0.544932,0.294732,0.081533,-1.772664,-0.693748,57.559685
00173,795400000,1970,1,1,0,21,32,0,0.136386,-0.338242,9.913557,-0.151641,-0.168241,-0.019634,0.548135,0.305704,0.079291,-1.855519,-0.792060,57.552105
00174,805400000,1970,1,1,0,21,32,0,0.211717,-0.254826,9.819992,-0.135688,-0.198481,-0.040855,0.547834,0.305974,0.084380,-1.929052,-0.908099,57.531013
00175,815400000,1970,1,1,0,21,32,0,0.196175,-0.247011,9.832670,-0.127860,-0.218289,-0.044455,0.545305,0.297256,0.076461,-1.998025,-1.035581,57.508499
00176,825400000,1970,1,1,0,21,32,0,0.177128,-0.292887,9.836506,-0.122925,-0.221899,-0.035770,0.539771,0.303117,0.078583,-2.064222,-1.164977,57.492844
00177,835400000,1970,1,1,0,21,32,0,0.284295,-0.309857,9.982234,-0.121031,-0.213483,-0.035552,0.545377,0.300050,0.076480,-2.129296,-1.289570,57.475140
00178,845400000,1970,1,1,0,21,32,0,0.044158,-0.417974,9.895751,-0.109873,-0.186510,-0.050213,0.545817,0.311091,0.074008,-2.187734,-1.399056,57.450264
00179,855400000,1970,1,1,0,21,32,0,0.082879,-0.429993,9.975231,-0.044517,-0.134044,-0.044048,0.545377,0.300050,0.076480,-2.208750,-1.478379,57.425690
00180,865400000,1970,1,1,0,21,32,0,0.179153,-0.446095,9.964223,-0.012573,-0.124988,-0.041354,0.546118,0.310821,0.068918,-2.211465,-1.552464,57.405109
00181,875400000,1970,1,1,0,21,32,0,0.250134,-0.399309,9.855510,0.014805,-0.143777,-0.062047,0.548135,0.305704,0.079291,-2.198148,-1.637755,57.370857
00182,885400000,1970,1,1,0,21,32,0,0.291703,-0.363111,9.830617,0.016924,-0.153564,-0.086128,0.551429,0.302301,0.069324,-2.183166,-1.729168,57.324680
00183,895400000,1970,1,1,0,21,32,0,0.355048,-0.351548,9.975829,0.018391,-0.146998,-0.099717,0.546190,0.313615,0.068936,-2.167026,-1.817098,57.271870
00184,905400000,1970,1,1,0,21,32,0,0.424273,-0.395276,10.068529,0.021672,-0.160126,-0.117393,0.548971,0.296377,0.061423,-2.148592,-1.912919,57.205566
00185,915400000,1970,1,1,0,21,32,0,0.390682,-0.429382,9.938352,-0.011187,-0.168776,-0.112225,0.548731,0.310887,0.071693,-2.148983,-2.013570,57.147560
00186,925400000,1970,1,1,0,21,32,0,0.318945,-0.437802,9.882053,-0.042257,-0.136599,-0.080594,0.543432,0.307960,0.066125,-2.167706,-2.095123,57.102722
00187,935400000,1970,1,1,0,21,32,0,0.291678,-0.416294,9.851700,-0.039594,-0.081419,-0.028977,0.543570,0.319272,0.068743,-2.185902,-2.143978,57.086502
00188,945400000,1970,1,1,0,21,32,0,0.279573,-0.396712,9.715647,-0.036511,-0.001840,0.015015,0.546262,0.316409,0.068955,-2.203208,-2.146308,57.091206
00189,955400000,1970,1,1,0,21,32,0,0.378281,-0.384669,9.759377,-0.028810,0.060387,0.037679,0.551501,0.305095,0.069342,-2.216525,-2.112508,57.109550
00190,965400000,1970,1,1,0,21,32,0,0.352497,-0.397061,9.856211,-0.035547,0.075382,0.031777,0.549032,0.310617,0.066603,-2.233559,-2.070240,57.128380
00191,975400000,1970,1,1,0,21,32,0,0.350412,-0.400358,9.779223,-0.024319,0.087376,0.014887,0.540511,0.313888,0.071021,-2.243788,-2.021489,57.134594
00192,985400000,1970,1,1,0,21,32,0,0.242274,-0.412065,9.780432,-0.034343,0.093025,0.007382,0.546123,0.305098,0.066337,-2.259600,-1.969669,57.133736
00193,995400000,1970,1,1,0,21,32,0,0.074300,-0.265249,9.536176,-0.010074,0.244588,-0.002613,0.540216,0.308435,0.073530,-2.261200,-1.831305,57.127884
00194,5400000,1970,1,1,0,21,33,0,0.374078,-0.386746,10.262372,0.028350,0.189259,0.017118,0.543059,0.305437,0.071197,-2.241189,-1.724168,57.132069
00195,15400000,1970,1,1,0,21,33,0,0.375889,-0.567606,9.868443,0.043892,0.093437,-0.032775,0.553898,0.296779,0.072062,-2.211483,-1.673006,57.111469
00196,25400000,1970,1,1,0,21,33,0,0.328224,-0.457840,9.868583,-0.006314,0.052076,-0.044142,0.542980,0.308366,0.073760,-2.210397,-1.645775,57.089806
00197,35400000,1970,1,1,0,21,33,0,0.148787,-0.380032,9.841823,-0.008441,0.036727,-0.032692,0.546190,0.313615,0.068936,-2.210739,-1.627075,57.068207
00198,45400000,1970,1,1,0,21,33,0,0.155016,-0.350771,9.709339,-0.011940,0.030777,-0.019424,0.537458,0.302780,0.070718,-2.213310,-1.611489,57.053993
00199,55400000,1970,1,1,0,21,33,0,0.235014,-0.372980,9.659081,-0.046518,0.001888,-0.011747,0.537603,0.308368,0.070755,-2.235836,-1.612271,57.046761
00200,65400000,1970,1,1,0,21,33,0,0.254767,-0.303394,9.693441,-0.073531,-0.010116,-0.018992,0.534917,0.305508,0.067962,-2.273730,-1.620095,57.034012
00201,75400000,1970,1,1,0,21,33,0,0.279085,-0.317810,9.743014,-0.071404,-0.012821,-0.045097,0.531780,0.303053,0.072803,-2.309984,-1.630068,57.007206
00202,85400000,1970,1,1,0,21,33,0,0.311700,-0.367803,9.864458,-0.082843,-0.016743,-0.059347,0.537452,0.308503,0.073300,-2.352549,-1.642641,56.972576
00203,95400000,1970,1,1,0,21,33,0,0.287571,-0.404519,9.877763,-0.090306,-0.014027,-0.064317,0.545901,0.302439,0.068864,-2.399303,-1.653802,56.934837
00204,105400000,1970,1,1,0,21,33,0,0.016097,-0.406907,9.676181,-0.125653,0.109146,-0.057668,0.540500,0.325334,0.076184,-2.466342,-1.594334,56.901737
00205,115400000,1970,1,1,0,21,33,0,0.426740,-0.506114,10.242463,-0.108425,0.057142,-0.008235,0.539921,0.302982,0.076038,-2.524359,-1.563434,56.889534
00206,125400000,1970,1,1,0,21,33,0,0.291841,-0.712344,9.984676,-0.064453,-0.080899,0.010552,0.540433,0.316817,0.073584,-2.557575,-1.611077,56.899570
00207,135400000,1970,1,1,0,21,33,0,0.409509,-0.504187,9.912786,-0.148491,-0.126169,-0.000086,0.537308,0.302915,0.073263,-2.638810,-1.684899,56.899887
00208,145400000,1970,1,1,0,21,33,0,0.289758,-0.490045,9.941386,-0.081576,-0.144056,0.007708,0.542824,0.314224,0.078885,-2.681861,-1.768751,56.909592
00209,155400000,1970,1,1,0,21,33,0,0.243354,-0.408776,9.841893,-0.017112,-0.123678,0.005107,0.545895,0.308162,0.071445,-2.687923,-1.841004,56.914032
00210,165400000,1970,1,1,0,21,33,0,0.149288,-0.411445,9.525532,-0.023449,-0.097793,-0.005863,0.534833,0.314160,0.073106,-2.697395,-1.898739,56.914772
00211,175400000,1970,1,1,0,21,33,0,-0.009943,-0.338783,9.373192,-0.095327,0.066576,-0.003589,0.547991,0.300116,0.079254,-2.747949,-1.862338,56.907066
00212,185400000,1970,1,1,0,21,33,0,0.200327,-0.385870,9.886029,-0.174097,0.062764,0.032385,0.551345,0.310953,0.074468,-2.844298,-1.827117,56.928745
00213,195400000,1970,1,1,0,21,33,0,0.329709,-0.645130,9.916038,-0.224382,-0.040950,0.044714,0.548364,0.302640,0.074183,-2.969775,-1.850855,56.956200
00214,205400000,1970,1,1,0,21,33,0,0.458610,-0.707890,9.810964,-0.286239,-0.100613,0.022446,0.548430,0.311157,0.076783,-3.130362,-1.909333,56.974415
00215,215400000,1970,1,1,0,21,33,0,0.356455,-0.577589,9.613146,-0.311617,-0.044649,0.000704,0.548202,0.314221,0.081890,-3.305024,-1.936460,56.974815
00216,225400000,1970,1,1,0,21,33,0,0.527975,-0.626982,9.871634,-0.261307,0.067136,0.015682,0.542758,0.305707,0.076286,-3.451027,-1.899140,56.979164
00217,235400000,1970,1,1,0,21,33,0,0.382103,-0.626838,9.813072,-0.242130,0.029996,-0.002373,0.548213,0.302775,0.076728,-3.585737,-1.883680,56.976425
00218,245400000,1970,1,1,0,21,33,0,0.102766,-0.534706,9.410301,-0.341021,0.036030,-0.050629,0.540060,0.314293,0.078655,-3.776195,-1.866558,56.947815
00219,255400000,1970,1,1,0,21,33,0,0.237986,-0.644228,9.735529,-0.339931,0.086959,-0.014466,0.540216,0.308435,0.073530,-3.966646,-1.819019,56.932125
00220,265400000,1970,1,1,0,21,33,0,0.254636,-0.688415,9.889638,-0.324566,0.011277,0.013547,0.531551,0.306117,0.077911,-4.148897,-1.813640,56.938206
00221,275400000,1970,1,1,0,21,33,0,0.281496,-0.713657,9.634701,-0.318744,-0.063928,0.006195,0.548135,0.305704,0.079291,-4.327785,-1.851520,56.942265
00222,285400000,1970,1,1,0,21,33,0,0.134843,-0.669797,9.464385,-0.388768,-0.047494,-0.003892,0.542746,0.317153,0.081448,-4.546585,-1.880440,56.943546
00223,295400000,1970,1,1,0,21,33,0,0.295267,-0.810494,9.781451,-0.406719,0.024418,0.026417,0.542228,0.309041,0.086483,-4.776129,-1.866888,56.954067
00224,305400000,1970,1,1,0,21,33,0,0.245935,-1.025690,10.050263,-0.354904,-0.046839,0.041999,0.545287,0.314425,0.084205,-4.976390,-1.893206,56.979515
00225,315400000,1970,1,1,0,21,33,0,0.221523,-0.631419,9.896235,-0.357734,-0.097964,0.101829,0.544920,0.306178,0.086695,-5.179525,-1.945573,57.040848
00226,325400000,1970,1,1,0,21,33,0,0.090975,-0.661335,9.900723,-0.275050,-0.039232,0.173762,0.539765,0.308840,0.081164,-5.336622,-1.960457,57.142536
00227,335400000,1970,1,1,0,21,33,0,0.218903,-0.867842,9.892316,-0.216854,0.013406,0.135041,0.533936,0.309248,0.085793,-5.459519,-1.947158,57.217060
00228,345400000,1970,1,1,0,21,33,0,0.318902,-0.855006,9.909380,-0.199538,-0.028227,0.114210,0.539097,0.300863,0.088743,-5.572170,-1.958591,57.280476
00229,355400000,1970,1,1,0,21,33,0,0.191017,-1.040366,9.798459,-0.247583,-0.066788,0.081702,0.536561,0.297868,0.083406,-5.711809,-1.993696,57.331337
00230,365400000,1970,1,1,0,21,33,0,0.189139,-0.869020,9.869272,-0.279804,-0.091306,0.095821,0.542090,0.297730,0.083866,-5.870284,-2.041826,57.392017
00231,375400000,1970,1,1,0,21,33,0,0.311811,-0.912965,9.958729,-0.270871,-0.121962,0.136491,0.539536,0.311904,0.086272,-6.024602,-2.104848,57.478493
00232,385400000,1970,1,1,0,21,33,0,0.490953,-1.121514,10.058647,-0.234961,-0.192830,0.177745,0.553290,0.303043,0.084822,-6.159523,-2.205524,57.586720
00233,395400000,1970,1,1,0,21,33,0,0.635188,-1.344776,9.904322,-0.161481,-0.233627,0.168274,0.555681,0.300450,0.090123,-6.252455,-2.329798,57.698814
00234,405400000,1970,1,1,0,21,33,0,0.700585,-1.262372,9.781840,-0.257310,-0.238885,0.158510,0.544998,0.303249,0.084132,-6.400328,-2.457460,57.806332
00235,415400000,1970,1,1,0,21,33,0,0.534581,-1.356134,9.689376,-0.300021,-0.225862,0.135727,0.553067,0.300384,0.087349,-6.572309,-2.578886,57.895859
00236,425400000,1970,1,1,0,21,33,0,0.490871,-1.256029,9.525338,-0.352958,-0.194206,0.119969,0.558674,0.297317,0.085246,-6.774321,-2.683046,57.977631
00237,435400000,1970,1,1,0,21,33,0,0.323338,-1.366831,9.453309,-0.370718,-0.148826,0.105117,0.547239,0.300791,0.091978,-6.986097,-2.762127,58.050400
00238,445400000,1970,1,1,0,21,33,0,0.318817,-1.191983,9.725895,-0.295006,-0.182346,0.123755,0.555609,0.297656,0.090105,-7.155258,-2.858720,58.130375
00239,455400000,1970,1,1,0,21,33,0,0.366509,-1.299902,9.553962,-0.229326,-0.204607,0.086209,0.553140,0.303178,0.087367,-7.285939,-2.970454,58.194546
00240,465400000,1970,1,1,0,21,33,0,0.473440,-1.012756,9.838644,-0.254080,-0.204324,0.070970,0.539320,0.303522,0.086217,-7.430489,-3.082983,58.246986
00241,475400000,1970,1,1,0,21,33,0,0.553389,-1.155122,9.910897,-0.262324,-0.228084,0.067567,0.547979,0.311562,0.084417,-7.579876,-3.209125,58.295933
00242,485400000,1970,1,1,0,21,33,0,0.632881,-1.459385,9.789174,-0.176922,-0.237277,0.036736,0.533653,0.292348,0.083139,-7.679512,-3.342712,58.328190
00243,495400000,1970,1,1,0,21,33,0,0.759122,-1.429293,9.780354,-0.170749,-0.234928,0.028485,0.544932,0.294732,0.081533,-7.775428,-3.475537,58.361332
00244,505400000,1970,1,1,0,21,33,0,0.754150,-1.492033,9.688869,-0.250105,-0.208966,0.046279,0.550682,0.297253,0.079466,-7.917396,-3.592164,58.404682
00245,515400000,1970,1,1,0,21,33,0,0.745305,-1.336091,9.717663,-0.252466,-0.164386,0.051489,0.550532,0.297388,0.082011,-8.060777,-3.682979,58.447895
00246,525400000,1970,1,1,0,21,33,0,0.725292,-1.240137,9.792173,-0.259089,-0.119348,0.026144,0.542312,0.300389,0.081339,-8.206849,-3.750199,58.472443
00247,535400000,1970,1,1,0,21,33,0,0.704099,-0.878664,9.821197,-0.319833,-0.097312,0.006949,0.550237,0.291935,0.084519,-8.386930,-3.806435,58.480415
00248,545400000,1970,1,1,0,21,33,0,0.466622,-1.400791,9.590343,-0.381739,-0.089212,0.009692,0.555916,0.291663,0.082435,-8.602552,-3.857816,58.496078
00249,555400000,1970,1,1,0,21,33,0,0.488067,-1.317299,9.581224,-0.313770,-0.123109,0.006592,0.542017,0.294936,0.083848,-8.779336,-3.928624,58.514683
00250,565400000,1970,1,1,0,21,33,0,0.579174,-1.320708,9.480267,-0.356402,-0.145663,0.044996,0.555392,0.289274,0.090051,-8.982224,-4.008753,58.550220
00251,575400000,1970,1,1,0,21,33,0,0.608173,-1.323592,9.505075,-0.399471,-0.157010,0.053459,0.547690,0.300386,0.084344,-9.210275,-4.094392,58.598537
00252,585400000,1970,1,1,0,21,33,0,0.725511,-1.329443,9.538531,-0.447728,-0.162624,0.047807,0.553001,0.291866,0.084749,-9.465872,-4.183543,58.636074
00253,595400000,1970,1,1,0,21,33,0,0.872793,-1.603055,9.513704,-0.637816,-0.138892,0.055220,0.555910,0.297386,0.085016,-9.830614,-4.258347,58.682205
00254,605400000,1970,1,1,0,21,33,0,0.825274,-1.763269,9.696403,-0.514522,-0.116033,-0.013575,0.552995,0.297590,0.087330,-10.121719,-4.326830,58.685116
00255,615400000,1970,1,1,0,21,33,0,0.923822,-1.619567,9.699077,-0.394214,-0.107436,0.000587,0.547172,0.292274,0.089379,-10.344463,-4.389012,58.694199
00256,625400000,1970,1,1,0,21,33,0,0.914782,-1.704377,9.603448,-0.318496,-0.073496,0.020912,0.549786,0.292341,0.092154,-10.524459,-4.429915,58.712128
00257,635400000,1970,1,1,0,21,33,0,0.874999,-1.708414,9.547034,-0.272579,-0.043550,0.034262,0.544414,0.286620,0.086568,-10.678500,-4.452500,58.735012
00258,645400000,1970,1,1,0,21,33,0,0.813046,-1.769638,9.381665,-0.350376,0.012500,0.002397,0.558156,0.289205,0.090281,-10.875262,-4.446877,58.735592
00259,655400000,1970,1,1,0,21,33,0,0.769717,-1.621730,9.420523,-0.458085,0.005310,0.023076,0.557711,0.283887,0.095334,-11.134703,-4.443038,58.750973
00260,665400000,1970,1,1,0,21,33,0,0.753319,-1.948702,9.406334,-0.641338,0.014090,0.009491,0.546871,0.292544,0.094468,-11.498459,-4.435730,58.758812
00261,675400000,1970,1,1,0,21,33,0,0.735426,-1.841043,9.633924,-0.437920,-0.025569,-0.033536,0.554868,0.286885,0.097667,-11.744143,-4.455630,58.739185
00262,685400000,1970,1,1,0,21,33,0,0.872981,-1.933849,9.508346,-0.371443,-0.058842,-0.003009,0.549491,0.286888,0.094662,-11.953385,-4.490655,58.745773
00263,695400000,1970,1,1,0,21,33,0,0.773876,-1.963377,9.383837,-0.415695,-0.023613,-0.033750,0.546871,0.292544,0.094468,-12.186302,-4.509604,58.729424
00264,705400000,1970,1,1,0,21,33,0,0.795372,-1.867251,9.519808,-0.403446,0.002211,-0.045008,0.543890,0.284231,0.094184,-12.411456,-4.515546,58.700703
00265,715400000,1970,1,1,0,21,33,0,0.740614,-1.950689,9.645847,-0.360854,0.009925,-0.034351,0.549262,0.289952,0.099770,-12.612611,-4.515938,58.680286
00266,725400000,1970,1,1,0,21,33,0,0.736499,-2.012054,9.598310,-0.314148,0.013216,0.009203,0.555085,0.295267,0.097721,-12.788883,-4.509077,58.682350
00267,735400000,1970,1,1,0,21,33,0,0.700436,-2.012627,9.458115,-0.325966,0.015185,0.049432,0.543957,0.292748,0.096783,-12.973670,-4.495966,58.706474
00268,745400000,1970,1,1,0,21,33,0,0.696302,-2.001042,9.400931,-0.357800,0.019008,0.040472,0.546275,0.287362,0.102066,-13.176260,-4.481796,58.723408
00269,755400000,1970,1,1,0,21,33,0,0.690482,-2.083334,9.463513,-0.405732,0.021722,0.015212,0.557181,0.287221,0.105531,-13.405166,-4.469365,58.728195
00270,765400000,1970,1,1,0,21,33,0,0.768636,-2.231879,9.499249,-0.452682,0.022670,0.016901,0.554339,0.290219,0.107864,-13.661028,-4.456159,58.736103
00271,775400000,1970,1,1,0,21,33,0,0.851495,-2.322528,9.583700,-0.493220,0.030876,0.016351,0.556964,0.278839,0.105476,-13.939996,-4.438436,58.740078
00272,785400000,1970,1,1,0,21,33,0,0.890253,-2.422277,9.647223,-0.503425,0.027630,0.003299,0.553972,0.281972,0.110354,-14.224272,-4.424318,58.742443
00273,795400000,1970,1,1,0,21,33,0,0.888757,-2.484690,9.560876,-0.491437,0.027364,-0.016181,0.553966,0.287695,0.112935,-14.500852,-4.413125,58.730804
00274,805400000,1970,1,1,0,21,33,0,0.970537,-2.593066,9.389341,-0.643373,0.041259,0.030589,0.553526,0.276654,0.115407,-14.866315,-4.387510,58.740414
00275,815400000,1970,1,1,0,21,33,0,0.858240,-2.814023,9.592199,-0.505966,0.055901,-0.035059,0.556579,0.287762,0.115710,-15.150096,-4.363474,58.715134
00276,825400000,1970,1,1,0,21,33,0,1.075519,-2.542338,9.765237,-0.342455,0.058262,-0.050102,0.551045,0.293622,0.117831,-15.339527,-4.340518,58.677330
00277,835400000,1970,1,1,0,21,33,0,0.924469,-2.511496,9.734479,-0.246239,0.081722,-0.067957,0.553960,0.293419,0.115516,-15.472837,-4.307424,58.622318
00278,845400000,1970,1,1,0,21,33,0,0.863426,-2.559833,9.625409,-0.179425,0.105926,-0.092316,0.548438,0.287833,0.112475,-15.566603,-4.264808,58.552044
00279,855400000,1970,1,1,0,21,33,0,0.804603,-2.582006,9.520444,-0.179006,0.098639,-0.093113,0.553737,0.290760,0.118043,-15.660217,-4.226446,58.484341
00280,865400000,1970,1,1,0,21,33,0,0.704867,-2.592230,9.497992,-0.206099,0.076447,-0.075846,0.551196,0.293487,0.115286,-15.770350,-4.197765,58.429504
00281,875400000,1970,1,1,0,21,33,0,0.734504,-2.788671,9.437925,-0.230517,0.072636,-0.025307,0.550528,0.285511,0.122866,-15.896574,-4.163403,58.402023
00282,885400000,1970,1,1,0,21,33,0,0.863105,-2.904963,9.505008,-0.291716,0.075121,0.032493,0.542314,0.282788,0.119613,-16.060148,-4.118614,58.408638
00283,895400000,1970,1,1,0,21,33,0,0.893530,-2.914027,9.601242,-0.355760,0.061311,0.075767,0.550594,0.294028,0.125465,-16.262270,-4.074502,58.440361
00284,905400000,1970,1,1,0,21,33,0,0.903487,-2.951839,9.483264,-0.399944,0.043646,0.091066,0.547613,0.285714,0.125181,-16.490479,-4.037515,58.479256
00285,915400000,1970,1,1,0,21,33,0,0.807301,-2.895253,9.390724,-0.385544,0.041985,0.076279,0.548059,0.291032,0.120128,-16.709846,-4.003698,58.513474
00286,925400000,1970,1,1,0,21,33,0,0.692676,-2.776241,9.332555,-0.343326,0.035140,0.049605,0.547613,0.285714,0.125181,-16.904057,-3.977924,58.532146
00287,935400000,1970,1,1,0,21,33,0,0.643393,-2.683784,9.242914,-0.286071,0.022206,0.011480,0.552774,0.277330,0.128131,-17.064144,-3.965554,58.533848
00288,945400000,1970,1,1,0,21,33,0,0.690704,-2.779814,9.312206,-0.242272,0.008415,-0.023985,0.539093,0.288985,0.129599,-17.197943,-3.966717,58.524300
00289,955400000,1970,1,1,0,21,33,0,0.789962,-3.128458,9.458348,-0.276646,-0.040600,-0.035009,0.547463,0.285850,0.127726,-17.351608,-3.996611,58.504642
00290,965400000,1970,1,1,0,21,33,0,0.940923,-3.242384,9.475918,-0.333135,-0.091705,-0.001200,0.541706,0.289051,0.132373,-17.539539,-4.048667,58.518608
00291,975400000,1970,1,1,0,21,33,0,0.946603,-3.259730,9.465319,-0.408685,-0.115063,0.060172,0.544554,0.280330,0.127459,-17.773481,-4.102751,58.565224
00292,985400000,1970,1,1,0,21,33,0,0.869515,-3.304594,9.377662,-0.491718,-0.138147,0.108586,0.552840,0.285847,0.130730,-18.057247,-4.160659,58.650345
00293,995400000,1970,1,1,0,21,33,0,0.751709,-3.177375,9.304808,-0.596452,-0.184781,0.136754,0.555237,0.277531,0.133450,-18.402897,-4.238430,58.757645
00294,5400000,1970,1,1,0,21,34,0,0.614821,-3.095789,9.118282,-0.652108,-0.235638,0.149046,0.552919,0.282918,0.128167,-18.781836,-4.340893,58.886284
00295,15400000,1970,1,1,0,21,34,0,0.433912,-2.988521,8.979987,-0.596918,-0.262957,0.109702,0.549715,0.271946,0.130409,-19.128212,-4.464695,58.994408
00296,25400000,1970,1,1,0,21,34,0,0.430946,-2.841528,8.854224,-0.534817,-0.262480,0.051296,0.552997,0.279989,0.125604,-19.436769,-4.598673,59.075741
00297,35400000,1970,1,1,0,21,34,0,0.423889,-3.132014,8.682777,-0.573883,-0.214638,0.026329,0.549932,0.280328,0.130464,-19.766109,-4.711192,59.131195
00298,45400000,1970,1,1,0,21,34,0,0.503431,-3.201513,8.844064,-0.372804,-0.148948,0.008887,0.552696,0.280259,0.130694,-19.978531,-4.791442,59.161297
00299,55400000,1970,1,1,0,21,34,0,0.737997,-3.367962,8.947878,-0.283058,-0.107763,0.098440,0.549564,0.272081,0.132954,-20.142960,-4.831819,59.233204
00300,65400000,1970,1,1,0,21,34,0,0.937371,-3.511908,9.063416,-0.244366,-0.068908,0.177004,0.555309,0.280325,0.133469,-20.288183,-4.835549,59.342876
00301,75400000,1970,1,1,0,21,34,0,1.105765,-3.542858,9.103110,-0.212445,-0.039035,0.193165,0.558230,0.274398,0.128573,-20.415327,-4.819748,59.451195
00302,85400000,1970,1,1,0,21,34,0,1.126533,-3.529934,9.062842,-0.234799,0.003144,0.148805,0.568690,0.268940,0.137091,-20.552530,-4.789953,59.532799
00303,95400000,1970,1,1,0,21,34,0,1.065359,-3.415751,9.232628,-0.269215,0.041280,0.080711,0.560548,0.269011,0.133856,-20.705698,-4.753273,59.574398
00304,105400000,1970,1,1,0,21,34,0,0.925597,-3.312926,9.267517,-0.299944,0.051285,0.032131,0.552184,0.266424,0.133148,-20.874130,-4.720998,59.584316
00305,115400000,1970,1,1,0,21,34,0,0.733096,-3.318307,9.169724,-0.308222,0.045963,0.005632,0.552250,0.274941,0.135747,-21.046207,-4.697000,59.578873
00306,125400000,1970,1,1,0,21,34,0,0.655318,-3.337956,9.073399,-0.308684,0.025658,-0.019194,0.560242,0.275005,0.141526,-21.217804,-4.688991,59.558323
00307,135400000,1970,1,1,0,21,34,0,0.634052,-3.284944,8.990541,-0.311107,0.002179,-0.042796,0.552323,0.277735,0.135765,-21.390144,-4.698475,59.532379
00308,145400000,1970,1,1,0,21,34,0,0.657701,-3.295662,8.965652,-0.305031,-0.025543,-0.042008,0.557405,0.272279,0.141278,-21.559513,-4.722641,59.509842
00309,155400000,1970,1,1,0,21,34,0,0.721127,-3.324228,8.988944,-0.308023,-0.042392,-0.066610,0.557478,0.275073,0.141297,-21.729801,-4.761026,59.482300
00310,165400000,1970,1,1,0,21,34,0,0.816469,-3.335181,9.075729,-0.302628,-0.036774,-0.089898,0.557700,0.277732,0.138770,-21.895851,-4.801453,59.439884
00311,175400000,1970,1,1,0,21,34,0,0.941830,-3.480042,9.137840,-0.303223,-0.025668,-0.106113,0.560169,0.272211,0.141508,-22.061300,-4.839579,59.386318
00312,185400000,1970,1,1,0,21,34,0,1.075247,-3.667231,9.142960,-0.311360,-0.015675,-0.103619,0.565475,0.269414,0.144495,-22.231314,-4.872014,59.336067
00313,195400000,1970,1,1,0,21,34,0,1.056090,-3.703637,9.173759,-0.366071,0.015983,-0.095224,0.540972,0.272557,0.137354,-22.432444,-4.886012,59.286522
00314,205400000,1970,1,1,0,21,34,0,0.923183,-3.652168,9.133872,-0.425199,0.049874,-0.063008,0.556587,0.264438,0.151403,-22.668285,-4.875206,59.237301
00315,215400000,1970,1,1,0,21,34,0,0.835855,-3.577169,9.087100,-0.434229,0.063633,-0.035859,0.551649,0.275481,0.145926,-22.910265,-4.851281,59.207169
00316,225400000,1970,1,1,0,21,34,0,0.821239,-3.551019,9.051396,-0.446006,0.062033,-0.026692,0.551576,0.272687,0.145908,-23.159430,-4.826295,59.175201
00317,235400000,1970,1,1,0,21,34,0,0.791666,-3.564965,8.949908,-0.434067,0.060453,-0.044952,0.563006,0.274936,0.141756,-23.400978,-4.806396,59.136078
00318,245400000,1970,1,1,0,21,34,0,0.866157,-3.698428,8.899074,-0.432240,0.077167,-0.076673,0.554112,0.275683,0.151246,-23.639750,-4.785126,59.081211
00319,255400000,1970,1,1,0,21,34,0,0.945580,-3.837743,8.891712,-0.405356,0.096708,-0.092047,0.545525,0.270436,0.153064,-23.862108,-4.757386,59.007004
00320,265400000,1970,1,1,0,21,34,0,1.014792,-3.972720,8.947873,-0.389161,0.106530,-0.104607,0.559267,0.273021,0.156777,-24.074469,-4.727688,58.923840
00321,275400000,1970,1,1,0,21,34,0,0.942092,-3.997736,9.039957,-0.363842,0.098986,-0.108084,0.539774,0.267915,0.155130,-24.272352,-4.703049,58.844429
00322,285400000,1970,1,1,0,21,34,0,0.849754,-3.907013,8.992290,-0.330788,0.082071,-0.098830,0.548132,0.276225,0.158420,-24.452040,-4.685316,58.769981
00323,295400000,1970,1,1,0,21,34,0,0.792007,-3.888991,8.942422,-0.333768,0.063251,-0.082708,0.559044,0.270362,0.159303,-24.634502,-4.673776,58.706596
00324,305400000,1970,1,1,0,21,34,0,0.760526,-3.881904,8.949892,-0.363831,0.043282,-0.064167,0.553209,0.276493,0.166514,-24.835371,-4.668386,58.666771
00325,315400000,1970,1,1,0,21,34,0,0.728780,-3.904461,9.124060,-0.385140,0.021733,-0.044415,0.545073,0.270841,0.160698,-25.049702,-4.669574,58.633499
00326,325400000,1970,1,1,0,21,34,0,0.827766,-4.002507,9.176641,-0.405628,0.002128,-0.015265,0.550379,0.268045,0.163685,-25.277401,-4.673948,58.622929
00327,335400000,1970,1,1,0,21,34,0,0.900648,-4.109119,8.998959,-0.462764,0.000084,0.021041,0.556130,0.270566,0.161618,-25.539417,-4.670492,58.635269
00328,345400000,1970,1,1,0,21,34,0,0.881833,-4.118684,8.940683,-0.493046,0.010277,0.027984,0.548054,0.279155,0.160983,-25.818850,-4.659976,58.650192
00329,355400000,1970,1,1,0,21,34,0,0.792389,-4.066376,8.906816,-0.467258,0.016730,0.020981,0.550006,0.265521,0.168756,-26.083090,-4.647838,58.649433
00330,365400000,1970,1,1,0,21,34,0,0.802376,-3.754383,8.755219,-0.534846,0.026361,0.046034,0.552764,0.271175,0.171567,-26.386871,-4.624374,58.667561
00331,375400000,1970,1,1,0,21,34,0,0.588441,-4.779202,8.457601,-0.728371,0.075091,0.020886,0.555528,0.271106,0.171797,-26.799486,-4.582293,58.655712
00332,385400000,1970,1,1,0,21,34,0,0.735464,-4.408514,8.823984,-0.506264,0.049250,-0.017715,0.544104,0.263135,0.173367,-27.083775,-4.563474,58.632290
00333,395400000,1970,1,1,0,21,34,0,0.749771,-4.476154,8.757792,-0.511663,0.017852,0.036697,0.552541,0.268516,0.174094,-27.374037,-4.546499,58.644585
00334,405400000,1970,1,1,0,21,34,0,0.713312,-4.552220,8.557810,-0.544389,0.043032,0.040602,0.557997,0.265584,0.174536,-27.682659,-4.515625,58.652107
00335,415400000,1970,1,1,0,21,34,0,0.752667,-4.678550,8.564621,-0.588416,0.082867,0.031547,0.560382,0.268715,0.182418,-28.015287,-4.466943,58.649433
00336,425400000,1970,1,1,0,21,34,0,0.703693,-4.737543,8.657705,-0.587425,0.117864,0.003632,0.555082,0.265788,0.176850,-28.345497,-4.408177,58.617634
00337,435400000,1970,1,1,0,21,34,0,0.720730,-4.804123,8.647263,-0.561640,0.099161,0.033674,0.546567,0.263336,0.178687,-28.662479,-4.350785,58.608345
00338,445400000,1970,1,1,0,21,34,0,0.756885,-4.959283,8.490770,-0.522978,0.070411,0.070290,0.551506,0.252292,0.184164,-28.959305,-4.297764,58.621334
00339,455400000,1970,1,1,0,21,34,0,0.823120,-4.947270,8.494304,-0.503957,0.074309,0.074825,0.554486,0.260606,0.184448,-29.245283,-4.241455,58.644421
00340,465400000,1970,1,1,0,21,34,0,0.824789,-4.902899,8.553811,-0.457897,0.064308,0.059948,0.548513,0.255425,0.189041,-29.504501,-4.194236,58.656628
00341,475400000,1970,1,1,0,21,34,0,0.773438,-4.916139,8.504512,-0.396834,0.058918,0.023162,0.551494,0.263739,0.189326,-29.727463,-4.160074,58.649906
00342,485400000,1970,1,1,0,21,34,0,0.739799,-4.880240,8.457383,-0.352854,0.064622,-0.027726,0.554107,0.263805,0.192101,-29.923292,-4.137584,58.611397
00343,495400000,1970,1,1,0,21,34,0,0.712107,-4.925592,8.473490,-0.300027,0.062942,-0.052740,0.559786,0.263532,0.190016,-30.087975,-4.123202,58.561962
00344,505400000,1970,1,1,0,21,34,0,0.712093,-5.002108,8.447444,-0.285769,0.053596,-0.068717,0.556576,0.258283,0.194839,-30.244139,-4.118176,58.512833
00345,515400000,1970,1,1,0,21,34,0,0.794290,-5.102502,8.431145,-0.303791,0.048153,-0.065433,0.562183,0.255216,0.192736,-30.410841,-4.115030,58.467308
00346,525400000,1970,1,1,0,21,34,0,0.837756,-5.127591,8.392368,-0.336180,0.053508,-0.058130,0.553885,0.261146,0.194627,-30.596264,-4.107256,58.430809
00347,535400000,1970,1,1,0,21,34,0,0.837919,-5.125228,8.437816,-0.376903,0.078270,-0.043961,0.551115,0.266938,0.196978,-30.805000,-4.083282,58.383564
00348,545400000,1970,1,1,0,21,34,0,0.850341,-5.086910,8.464684,-0.380382,0.101771,-0.033417,0.553584,0.261416,0.199717,-31.015631,-4.044820,58.328442
00349,555400000,1970,1,1,0,21,34,0,0.790525,-4.987806,8.526035,-0.338036,0.126623,-0.029948,0.553367,0.253034,0.199662,-31.201653,-3.993303,58.273289
00350,565400000,1970,1,1,0,21,34,0,0.727271,-4.804847,8.570226,-0.260149,0.139889,-0.044135,0.547984,0.258760,0.199238,-31.342279,-3.939664,58.213955
00351,575400000,1970,1,1,0,21,34,0,0.729627,-4.800012,8.524257,-0.147565,0.095309,-0.063925,0.561653,0.258551,0.202933,-31.418737,-3.913839,58.151657
00352,585400000,1970,1,1,0,21,34,0,0.626422,-4.908407,8.299692,-0.108851,0.056841,-0.108789,0.553066,0.253304,0.204752,-31.472277,-3.920314,58.085541
00353,595400000,1970,1,1,0,21,34,0,0.607014,-4.874465,8.238583,-0.095758,0.045383,-0.123668,0.541932,0.256509,0.206395,-31.518034,-3.936900,58.014111
00354,605400000,1970,1,1,0,21,34,0,0.596305,-4.918489,8.315143,-0.124804,0.010340,-0.121634,0.555752,0.256164,0.207545,-31.581213,-3.970044,57.945702
00355,615400000,1970,1,1,0,21,34,0,0.583448,-4.928246,8.383750,-0.156855,-0.039088,-0.069998,0.547911,0.255966,0.199220,-31.665495,-4.011870,57.926029
00356,625400000,1970,1,1,0,21,34,0,0.626635,-5.111276,8.246758,-0.204464,-0.078704,-0.016067,0.553584,0.261416,0.199717,-31.779730,-4.056812,57.944401
00357,635400000,1970,1,1,0,21,34,0,0.743542,-5.189038,8.124601,-0.298647,-0.085935,0.011385,0.547984,0.258760,0.199238,-31.949078,-4.096930,57.977036
00358,645400000,1970,1,1,0,21,34,0,0.779357,-5.276843,8.116668,-0.421804,-0.075288,0.020555,0.558817,0.255825,0.202685,-32.189083,-4.128950,58.009598
00359,655400000,1970,1,1,0,21,34,0,0.679594,-5.368988,8.182081,-0.535074,-0.065280,0.049565,0.539168,0.256577,0.206165,-32.494839,-4.147076,58.058849
00360,665400000,1970,1,1,0,21,34,0,0.627707,-5.391976,8.221213,-0.606089,-0.061231,0.095232,0.541776,0.262367,0.211520,-32.842758,-4.148900,58.115875
00361,675400000,1970,1,1,0,21,34,0,0.652827,-5.435961,8.241118,-0.597734,-0.097824,0.146404,0.549929,0.250849,0.209593,-33.188549,-4.151914,58.205105
00362,685400000,1970,1,1,0,21,34,0,0.638045,-5.394468,8.135446,-0.650723,-0.116399,0.158533,0.541860,0.253715,0.206376,-33.565559,-4.159349,58.318581
00363,695400000,1970,1,1,0,21,34,0,0.587956,-5.389789,8.024299,-0.699541,-0.102934,0.140594,0.544250,0.251122,0.211678,-33.969597,-4.165325,58.413921
00364,705400000,1970,1,1,0,21,34,0,0.593693,-5.377493,7.987422,-0.700179,-0.102698,0.128170,0.549857,0.248055,0.209575,-34.373604,-4.174476,58.503315
00365,715400000,1970,1,1,0,21,34,0,0.560647,-5.523183,7.986199,-0.634911,-0.132650,0.122689,0.552476,0.242398,0.209768,-34.740749,-4.198908,58.604969
00366,725400000,1970,1,1,0,21,34,0,0.570305,-5.703968,7.866184,-0.592688,-0.145639,0.107023,0.555156,0.250982,0.215142,-35.083561,-4.233960,58.707096
00367,735400000,1970,1,1,0,21,34,0,0.675145,-5.814361,7.793396,-0.609017,-0.114859,0.104594,0.549411,0.242737,0.214628,-35.434940,-4.254822,58.790165
00368,745400000,1970,1,1,0,21,34,0,0.700738,-5.859773,7.878223,-0.625851,-0.088558,0.109389,0.554945,0.236876,0.212507,-35.795517,-4.261295,58.869034
00369,755400000,1970,1,1,0,21,34,0,0.737218,-5.938899,7.946299,-0.617959,-0.072976,0.114607,0.560395,0.239668,0.215530,-36.151360,-4.258263,58.951351
00370,765400000,1970,1,1,0,21,34,0,0.770136,-5.908435,7.830682,-0.585431,-0.050470,0.096595,0.552181,0.236945,0.212277,-36.487373,-4.250491,59.015724
00371,775400000,1970,1,1,0,21,34,0,0.740224,-5.911327,7.858678,-0.556299,-0.038454,0.074885,0.551652,0.240280,0.222474,-36.805630,-4.244263,59.064396
00372,785400000,1970,1,1,0,21,34,0,0.641523,-5.853071,7.883359,-0.488321,-0.052619,0.049726,0.554199,0.231829,0.222649,-37.084446,-4.252920,59.099045
00373,795400000,1970,1,1,0,21,34,0,0.581798,-5.859371,7.734027,-0.432384,-0.063723,0.041386,0.560245,0.239803,0.218074,-37.331226,-4.269364,59.139931
00374,805400000,1970,1,1,0,21,34,0,0.638251,-5.976736,7.600449,-0.431152,-0.053897,0.012754,0.546425,0.240147,0.216924,-37.576096,-4.291138,59.164330
00375,815400000,1970,1,1,0,21,34,0,0.685148,-6.075369,7.649712,-0.448021,-0.029659,-0.010335,0.551579,0.237485,0.222456,-37.829224,-4.309903,59.164104
00376,825400000,1970,1,1,0,21,34,0,0.771260,-6.127482,7.687908,-0.442571,-0.016781,-0.022172,0.551585,0.231762,0.219874,-38.078487,-4.326973,59.155949
00377,835400000,1970,1,1,0,21,34,0,0.774646,-6.130567,7.601782,-0.454048,-0.003170,-0.002072,0.562419,0.228828,0.223321,-38.334641,-4.330820,59.156967
00378,845400000,1970,1,1,0,21,34,0,0.744214,-6.306015,7.581225,-0.477445,0.006487,0.017184,0.551290,0.226309,0.222383,-38.604618,-4.323478,59.167435
00379,855400000,1970,1,1,0,21,34,0,0.687811,-6.293490,7.586008,-0.499620,0.000443,0.030871,0.564888,0.223306,0.226059,-38.887901,-4.313900,59.182667
00380,865400000,1970,1,1,0,21,34,0,0.631552,-6.202013,7.650925,-0.509306,-0.007190,0.067133,0.551363,0.229103,0.222401,-39.178162,-4.294561,59.221851
00381,875400000,1970,1,1,0,21,34,0,0.624935,-6.167499,7.743918,-0.484006,0.001908,0.078772,0.556818,0.226172,0.222843,-39.454033,-4.266802,59.254864
00382,885400000,1970,1,1,0,21,34,0,0.677080,-6.092381,7.805156,-0.417657,0.016189,0.055684,0.564737,0.223441,0.228604,-39.690727,-4.241009,59.275730
00383,895400000,1970,1,1,0,21,34,0,0.742799,-5.735560,7.438477,-0.739033,0.014153,0.171901,0.555849,0.218465,0.235512,-40.115341,-4.173270,59.350048
00384,905400000,1970,1,1,0,21,34,0,0.248384,-6.609810,7.443359,-0.504237,0.093454,0.003071,0.564286,0.223847,0.236238,-40.397835,-4.132938,59.315018
00385,915400000,1970,1,1,0,21,34,0,0.762266,-6.205164,7.550657,-0.327632,0.092785,-0.008519,0.561221,0.224186,0.241098,-40.578796,-4.097331,59.276058
00386,925400000,1970,1,1,0,21,34,0,0.573213,-6.444666,7.309562,-0.408957,0.074280,0.047035,0.556000,0.218330,0.232967,-40.808571,-4.049152,59.264896
00387,935400000,1970,1,1,0,21,34,0,0.735046,-6.609275,7.404361,-0.473780,0.059532,0.078557,0.561600,0.220986,0.233445,-41.076855,-3.995569,59.277859
00388,945400000,1970,1,1,0,21,34,0,0.790881,-6.690497,7.606094,-0.542528,0.012831,0.079072,0.558908,0.223849,0.233234,-41.385727,-3.961835,59.308964
00389,955400000,1970,1,1,0,21,34,0,0.784482,-6.692614,7.616349,-0.568693,-0.029654,0.066073,0.555482,0.210218,0.238002,-41.710289,-3.951107,59.347656
00390,965400000,1970,1,1,0,21,34,0,0.749389,-6.607518,7.549404,-0.590242,-0.011838,0.049054,0.558162,0.218801,0.243376,-42.046227,-3.939047,59.374908
00391,975400000,1970,1,1,0,21,34,0,0.625458,-6.444074,7.634264,-0.576351,0.021200,0.018939,0.563612,0.221593,0.246399,-42.372437,-3.924409,59.370613
00392,985400000,1970,1,1,0,21,34,0,0.531799,-6.373583,7.538621,-0.515069,0.035879,0.007060,0.566310,0.213007,0.244030,-42.662800,-3.908168,59.355545
00393,995400000,1970,1,1,0,21,34,0,0.433502,-6.418500,7.308260,-0.452978,0.048267,-0.011415,0.563094,0.213481,0.251434,-42.916718,-3.893966,59.334866
00394,5400000,1970,1,1,0,21,35,0,0.472826,-6.458490,7.149066,-0.453325,0.053645,-0.037474,0.557867,0.213348,0.245885,-43.169945,-3.887798,59.295692
00395,15400000,1970,1,1,0,21,35,0,0.570375,-6.709216,6.943823,-0.475258,0.054120,-0.052064,0.557271,0.208166,0.253482,-43.435303,-3.887338,59.251644
00396,25400000,1970,1,1,0,21,35,0,0.703780,-6.987748,6.857782,-0.498305,0.052921,-0.046646,0.562655,0.202440,0.253906,-43.714081,-3.885429,59.209469
00397,35400000,1970,1,1,0,21,35,0,0.742908,-7.126020,6.838822,-0.565826,0.038672,-0.002385,0.554429,0.211164,0.255815,-44.033157,-3.872037,59.196587
00398,45400000,1970,1,1,0,21,35,0,0.677242,-7.145082,6.762000,-0.620397,0.014233,0.055088,0.560252,0.216479,0.253767,-44.385761,-3.845801,59.208603
00399,55400000,1970,1,1,0,21,35,0,0.619810,-7.058825,6.787389,-0.645352,0.010365,0.078630,0.556904,0.199919,0.255973,-44.753380,-3.811580,59.233490
00400,65400000,1970,1,1,0,21,35,0,0.519394,-6.907313,6.798552,-0.653355,0.018523,0.072784,0.559885,0.208232,0.256257,-45.125175,-3.776228,59.257629
00401,75400000,1970,1,1,0,21,35,0,0.432859,-6.806465,6.732522,-0.601959,0.016861,0.046021,0.565196,0.199712,0.256663,-45.466850,-3.752307,59.268532
00402,85400000,1970,1,1,0,21,35,0,0.438578,-6.815596,6.700990,-0.593887,0.025466,-0.002034,0.567743,0.191261,0.256838,-45.802383,-3.744545,59.261234
00403,95400000,1970,1,1,0,21,35,0,0.417499,-6.738742,6.648443,-0.546775,0.027986,-0.027300,0.553917,0.197328,0.258269,-46.110168,-3.746249,59.245506
00404,105400000,1970,1,1,0,21,35,0,0.662038,-6.938775,6.157454,-1.260693,0.090824,0.184520,0.570050,0.197321,0.267283,-46.830769,-3.635371,59.279350
00405,115400000,1970,1,1,0,21,35,0,0.537815,-7.523736,6.971385,-0.710613,0.182533,-0.057428,0.561535,0.194868,0.269120,-47.227676,-3.589748,59.180618
00406,125400000,1970,1,1,0,21,35,0,1.020293,-7.306242,6.960152,-0.360645,0.076097,0.009947,0.561686,0.194733,0.266575,-47.428551,-3.557600,59.151188
00407,135400000,1970,1,1,0,21,35,0,0.566423,-7.301790,6.277135,-0.519969,0.080768,0.037450,0.564149,0.194934,0.271895,-47.721252,-3.512132,59.131763
00408,145400000,1970,1,1,0,21,35,0,0.629898,-7.194707,6.395300,-0.574475,0.126615,0.023231,0.566919,0.189142,0.269543,-48.043686,-3.455205,59.086170
00409,155400000,1970,1,1,0,21,35,0,0.553391,-7.111397,6.540860,-0.571797,0.104200,-0.036058,0.550473,0.200867,0.270781,-48.363766,-3.432401,59.030510
00410,165400000,1970,1,1,0,21,35,0,0.461754,-7.076054,6.421268,-0.584294,0.082191,-0.072707,0.558627,0.189349,0.268853,-48.690762,-3.434007,58.962940
00411,175400000,1970,1,1,0,21,35,0,0.431273,-7.263882,6.371205,-0.603373,0.081345,-0.087671,0.558031,0.184166,0.276451,-49.028378,-3.442757,58.896908
00412,185400000,1970,1,1,0,21,35,0,0.482744,-7.341261,6.453732,-0.530950,0.060131,-0.071380,0.544650,0.195551,0.272829,-49.325394,-3.452749,58.845005
00413,195400000,1970,1,1,0,21,35,0,0.567079,-7.362734,6.336586,-0.454386,0.021083,-0.036926,0.561162,0.192344,0.274191,-49.580368,-3.462533,58.818810
00414,205400000,1970,1,1,0,21,35,0,0.566668,-7.430133,6.163492,-0.451937,-0.008524,-0.010707,0.560500,0.178644,0.279190,-49.835281,-3.471934,58.820217
00415,215400000,1970,1,1,0,21,35,0,0.627274,-7.500528,6.058632,-0.471757,-0.033484,-0.003505,0.558097,0.192683,0.279051,-50.102394,-3.487375,58.836494
00416,225400000,1970,1,1,0,21,35,0,0.633200,-7.531107,6.051651,-0.510662,-0.043859,-0.015166,0.554821,0.178917,0.281274,-50.391815,-3.511677,58.849121
00417,235400000,1970,1,1,0,21,35,0,0.630396,-7.528509,6.056653,-0.567912,-0.058024,-0.036284,0.560494,0.184367,0.281771,-50.714001,-3.550389,58.862392
00418,245400000,1970,1,1,0,21,35,0,0.544413,-7.602377,6.085756,-0.605407,-0.069866,-0.044175,0.560500,0.178644,0.279190,-51.057796,-3.596818,58.878082
00419,255400000,1970,1,1,0,21,35,0,0.492583,-7.548307,6.082409,-0.608034,-0.076845,-0.044587,0.565655,0.175983,0.284721,-51.403347,-3.645857,58.898705
00420,265400000,1970,1,1,0,21,35,0,0.515191,-7.478066,6.096655,-0.609446,-0.077938,-0.039029,0.549143,0.179190,0.283359,-51.749878,-3.692675,58.921638
00421,275400000,1970,1,1,0,21,35,0,0.571457,-7.524350,6.098691,-0.589998,-0.065448,-0.058804,0.557585,0.178848,0.281504,-52.084507,-3.743852,58.928516
00422,285400000,1970,1,1,0,21,35,0,0.625239,-7.540576,6.233160,-0.508577,-0.030753,-0.095307,0.552057,0.178986,0.281044,-52.370617,-3.799334,58.909748
00423,295400000,1970,1,1,0,21,35,0,0.693094,-7.537268,6.302076,-0.392080,-0.004596,-0.108393,0.551834,0.176327,0.283571,-52.588886,-3.851717,58.873856
00424,305400000,1970,1,1,0,21,35,0,0.797184,-7.658608,6.218682,-0.276717,0.016932,-0.114322,0.565877,0.178642,0.282194,-52.740215,-3.899431,58.826385
00425,315400000,1970,1,1,0,21,35,0,0.866417,-7.826208,6.116821,-0.215582,-0.002179,-0.111869,0.551834,0.176327,0.283571,-52.857147,-3.952750,58.791641
00426,325400000,1970,1,1,0,21,35,0,0.905356,-7.886799,6.071043,-0.175682,-0.047969,-0.100487,0.560048,0.179050,0.286824,-52.952892,-4.016796,58.778702
00427,335400000,1970,1,1,0,21,35,0,0.931503,-7.915983,5.933260,-0.184892,-0.078542,-0.088445,0.557435,0.178983,0.284049,-53.055248,-4.085862,58.784660
00428,345400000,1970,1,1,0,21,35,0,0.893195,-7.897883,5.854321,-0.226533,-0.088189,-0.104721,0.557140,0.173530,0.286558,-53.181332,-4.165710,58.789814
00429,355400000,1970,1,1,0,21,35,0,0.884271,-7.760129,5.869353,-0.254102,-0.079549,-0.134911,0.557652,0.187365,0.284104,-53.322220,-4.256436,58.781040
00430,365400000,1970,1,1,0,21,35,0,0.942683,-7.645761,5.835721,-0.240629,-0.067540,-0.166457,0.557296,0.167672,0.281432,-53.454136,-4.357583,58.754143
00431,375400000,1970,1,1,0,21,35,0,1.031280,-7.727250,5.749454,-0.230447,-0.053517,-0.188226,0.557134,0.179254,0.289139,-53.579147,-4.464046,58.718857
00432,385400000,1970,1,1,0,21,35,0,1.101793,-7.754903,5.720452,-0.234975,-0.030067,-0.230531,0.551756,0.179256,0.286134,-53.704674,-4.582156,58.653042
00433,395400000,1970,1,1,0,21,35,0,0.982371,-7.751945,5.859782,-0.190123,0.002447,-0.259208,0.559826,0.176391,0.289351,-53.802383,-4.702619,58.563122
00434,405400000,1970,1,1,0,21,35,0,0.962052,-7.990969,5.618511,-0.150192,-0.029378,-0.168946,0.554526,0.173464,0.283783,-53.880848,-4.792206,58.521000
00435,415400000,1970,1,1,0,21,35,0,1.071024,-8.341212,5.542011,-0.153058,-0.075576,-0.025081,0.552274,0.187368,0.281099,-53.966782,-4.830836,58.550205
00436,425400000,1970,1,1,0,21,35,0,1.180640,-8.298012,5.728248,-0.165547,-0.100598,0.071873,0.551834,0.176327,0.283571,-54.063629,-4.832897,58.620842
00437,435400000,1970,1,1,0,21,35,0,1.135444,-8.075738,5.832617,-0.143701,-0.091417,0.121226,0.567973,0.170596,0.290004,-54.149002,-4.808857,58.705151
00438,445400000,1970,1,1,0,21,35,0,1.034536,-7.965641,5.621361,-0.186718,-0.051170,0.132906,0.556917,0.170871,0.289084,-54.257717,-4.765769,58.776997
00439,455400000,1970,1,1,0,21,35,0,0.966241,-7.873124,5.543536,-0.255083,0.011914,0.076721,0.551389,0.171009,0.288624,-54.401554,-4.727609,58.797199
00440,465400000,1970,1,1,0,21,35,0,0.922879,-8.045471,5.550366,-0.356951,0.028799,0.035024,0.549065,0.182119,0.285922,-54.601936,-4.703226,58.794445
00441,475400000,1970,1,1,0,21,35,0,0.988295,-8.128363,5.550149,-0.466310,0.026027,0.043882,0.551612,0.173668,0.286098,-54.865311,-4.675608,58.794495
00442,485400000,1970,1,1,0,21,35,0,1.105579,-8.237802,5.664024,-0.536298,0.023381,0.055543,0.564764,0.165347,0.294827,-55.169224,-4.643369,58.802479
00443,495400000,1970,1,1,0,21,35,0,1.074736,-8.230147,5.714674,-0.571005,0.004732,0.062175,0.559536,0.165215,0.289278,-55.493851,-4.614052,58.823059
00444,505400000,1970,1,1,0,21,35,0,0.905263,-8.095522,5.605813,-0.604735,0.000806,0.083513,0.553930,0.168281,0.291381,-55.838501,-4.575799,58.852306
00445,515400000,1970,1,1,0,21,35,0,0.816477,-8.083178,5.546834,-0.625200,0.009799,0.082036,0.553930,0.168281,0.291381,-56.194466,-4.535207,58.873501
00446,525400000,1970,1,1,0,21,35,0,0.718891,-8.003833,5.579912,-0.608663,0.005913,0.066733,0.556550,0.162624,0.291574,-56.540680,-4.502996,58.891647
00447,535400000,1970,1,1,0,21,35,0,0.651211,-7.893419,5.708477,-0.535744,0.018398,0.052989,0.559085,0.165620,0.296912,-56.844269,-4.473340,58.901115
00448,545400000,1970,1,1,0,21,35,0,0.635075,-7.899658,5.667867,-0.430187,0.049727,0.039308,0.556550,0.162624,0.291574,-57.085850,-4.440414,58.889084
00449,555400000,1970,1,1,0,21,35,0,0.605482,-7.938814,5.482240,-0.379837,0.081057,0.003528,0.561855,0.159828,0.294561,-57.296547,-4.415038,58.852844
00450,565400000,1970,1,1,0,21,35,0,0.568768,-7.945412,5.286173,-0.376331,0.127368,-0.029412,0.550649,0.160238,0.296186,-57.502735,-4.391401,58.784729
00451,575400000,1970,1,1,0,21,35,0,0.589875,-8.049221,5.228226,-0.423461,0.154079,-0.059026,0.558640,0.160302,0.301965,-57.734264,-4.374163,58.690811
00452,585400000,1970,1,1,0,21,35,0,0.655244,-8.204582,5.210259,-0.461047,0.149360,-0.073985,0.566643,0.148919,0.302582,-57.987171,-4.366004,58.595539
00453,595400000,1970,1,1,0,21,35,0,0.723530,-8.313837,5.077660,-0.516840,0.123492,-0.070788,0.552811,0.160710,0.306595,-58.273087,-4.364552,58.518856
00454,605400000,1970,1,1,0,21,35,0,0.802775,-8.428782,4.939145,-0.595361,0.103868,-0.057830,0.561109,0.154780,0.304703,-58.605019,-4.363106,58.447426
00455,615400000,1970,1,1,0,21,35,0,0.765312,-8.530282,5.086337,-0.661209,0.073891,-0.063333,0.563801,0.151917,0.304915,-58.975658,-4.373669,58.394592
00456,625400000,1970,1,1,0,21,35,0,0.641967,-8.425368,5.218609,-0.655864,0.044377,-0.040041,0.566342,0.149189,0.307672,-59.344891,-4.381767,58.364376
00457,635400000,1970,1,1,0,21,35,0,0.601504,-8.350863,5.117404,-0.587765,0.026207,0.013220,0.560362,0.149732,0.314846,-59.676956,-4.369050,58.358345
00458,645400000,1970,1,1,0,21,35,0,0.640201,-8.371501,4.940194,-0.531808,0.025998,0.030636,0.558128,0.146467,0.304419,-59.977367,-4.347836,58.352665
00459,655400000,1970,1,1,0,21,35,0,0.669168,-8.422715,4.840111,-0.514444,0.014060,0.025686,0.560067,0.144279,0.317354,-60.268154,-4.332483,58.355797
00460,665400000,1970,1,1,0,21,35,0,0.656274,-8.423657,4.792873,-0.542467,-0.004594,0.015853,0.557538,0.135561,0.309435,-60.575474,-4.327307,58.361271
00461,675400000,1970,1,1,0,21,35,0,0.648094,-8.493049,4.750330,-0.575447,-0.023353,0.000751,0.563283,0.143805,0.309950,-60.902073,-4.334898,58.376030
00462,685400000,1970,1,1,0,21,35,0,0.615506,-8.547287,4.675035,-0.570628,-0.051102,0.000870,0.552305,0.141152,0.306467,-61.226978,-4.350035,58.403973
00463,695400000,1970,1,1,0,21,35,0,0.637072,-8.568604,4.563068,-0.543865,-0.071459,0.015851,0.562759,0.141416,0.317566,-61.537682,-4.363078,58.444954
00464,705400000,1970,1,1,0,21,35,0,0.693394,-8.638012,4.473771,-0.530273,-0.077309,0.032506,0.557086,0.135966,0.317070,-61.841167,-4.369096,58.492229
00465,715400000,1970,1,1,0,21,35,0,0.732440,-8.791878,4.399802,-0.511734,-0.075570,0.050545,0.557387,0.135696,0.311980,-62.134335,-4.365253,58.543545
00466,725400000,1970,1,1,0,21,35,0,0.739423,-8.820223,4.391935,-0.478999,-0.070216,0.054322,0.559550,0.136167,0.322389,-62.408619,-4.357805,58.595089
00467,735400000,1970,1,1,0,21,35,0,0.688004,-8.849821,4.420943,-0.446236,-0.067154,0.049665,0.565607,0.132695,0.312652,-62.663898,-4.351680,58.640732
00468,745400000,1970,1,1,0,21,35,0,0.697693,-8.855263,4.416212,-0.421537,-0.073758,0.046590,0.560230,0.132698,0.309647,-62.905231,-4.348651,58.694126
00469,755400000,1970,1,1,0,21,35,0,0.732127,-8.902914,4.434633,-0.387721,-0.058607,0.040250,0.562699,0.127176,0.312386,-63.126469,-4.344708,58.736847
00470,765400000,1970,1,1,0,21,35,0,0.869794,-8.665571,4.616273,-0.307772,-0.033568,-0.017709,0.559778,0.133103,0.317282,-63.299763,-4.363808,58.751518
00471,775400000,1970,1,1,0,21,35,0,0.614519,-8.246483,4.636322,-0.170796,0.077682,-0.132644,0.562765,0.135693,0.314985,-63.387981,-4.413121,58.676483
00472,785400000,1970,1,1,0,21,35,0,0.579769,-8.642164,4.270814,-0.182716,0.086079,-0.130670,0.563138,0.138217,0.309914,-63.482670,-4.459403,58.599567
00473,795400000,1970,1,1,0,21,35,0,0.734866,-9.064523,4.162152,-0.160031,0.023674,-0.055587,0.556719,0.127719,0.319560,-63.568298,-4.483226,58.575539
00474,805400000,1970,1,1,0,21,35,0,0.919165,-9.131921,4.245890,-0.184412,-0.008392,-0.009964,0.549101,0.130179,0.308709,-63.670116,-4.491840,58.576797
00475,815400000,1970,1,1,0,21,35,0,0.881202,-9.079445,4.211714,-0.247055,0.001861,0.043141,0.557014,0.133172,0.317052,-63.808468,-4.470555,58.588024
00476,825400000,1970,1,1,0,21,35,0,0.792851,-8.670611,4.193593,-0.292321,0.025844,0.049458,0.559561,0.124721,0.317227,-63.971916,-4.439961,58.587219
00477,835400000,1970,1,1,0,21,35,0,0.541911,-8.489174,4.184836,-0.269230,0.038141,-0.018137,0.556792,0.130513,0.319578,-64.120293,-4.441095,58.564713
00478,845400000,1970,1,1,0,21,35,0,0.579420,-8.628867,3.999634,-0.289999,0.010863,-0.053760,0.562470,0.130240,0.317493,-64.280991,-4.467474,58.545494
00479,855400000,1970,1,1,0,21,35,0,0.814958,-8.940909,4.112565,-0.386993,0.000462,-0.049141,0.562470,0.130240,0.317493,-64.497772,-4.494087,58.534969
00480,865400000,1970,1,1,0,21,35,0,1.060915,-9.124355,4.307783,-0.468755,-0.028565,-0.055736,0.562175,0.124787,0.320002,-64.762451,-4.531313,58.537743
00481,875400000,1970,1,1,0,21,35,0,1.087839,-9.194495,4.270095,-0.536140,-0.040626,-0.033262,0.556870,0.127584,0.317015,-65.066696,-4.559759,58.552132
00482,885400000,1970,1,1,0,21,35,0,0.954851,-9.040886,4.306443,-0.529485,-0.044287,0.005682,0.565011,0.127513,0.320250,-65.368050,-4.568772,58.577396
00483,895400000,1970,1,1,0,21,35,0,0.828242,-8.824394,4.209042,-0.440013,-0.042449,0.063785,0.567703,0.124650,0.320462,-65.619164,-4.546933,58.616234
00484,905400000,1970,1,1,0,21,35,0,0.727168,-8.750909,4.088423,-0.383523,-0.044543,0.105010,0.561886,0.113611,0.319929,-65.838722,-4.503896,58.666271
00485,915400000,1970,1,1,0,21,35,0,0.722379,-8.761840,3.951459,-0.362395,-0.049033,0.129464,0.567492,0.110544,0.317826,-66.046761,-4.448935,58.724022
00486,925400000,1970,1,1,0,21,35,0,0.749461,-8.763795,3.892260,-0.354636,-0.064852,0.120580,0.561814,0.110817,0.319911,-66.250748,-4.402092,58.789284
00487,935400000,1970,1,1,0,21,35,0,0.699314,-8.749988,3.681513,-0.402019,-0.075448,0.098300,0.564494,0.119401,0.325285,-66.481880,-4.369131,58.852283
00488,945400000,1970,1,1,0,21,35,0,0.752668,-8.725988,3.697080,-0.486824,-0.070759,0.076932,0.564505,0.107954,0.320122,-66.761002,-4.346070,58.906006
00489,955400000,1970,1,1,0,21,35,0,0.755148,-8.765145,3.844276,-0.493889,-0.067370,0.044289,0.564505,0.107954,0.320122,-67.043457,-4.339167,58.953419
00490,965400000,1970,1,1,0,21,35,0,0.642345,-8.769711,3.806159,-0.521455,-0.053442,0.028464,0.564572,0.116472,0.322722,-67.340881,-4.337297,58.989491
00491,975400000,1970,1,1,0,21,35,0,0.682867,-8.825444,3.704658,-0.565518,-0.033707,0.028620,0.570033,0.107817,0.320582,-67.662735,-4.330844,59.013523
00492,985400000,1970,1,1,0,21,35,0,0.771091,-9.041875,3.706359,-0.656293,-0.034918,0.021765,0.566824,0.102568,0.325406,-68.036537,-4.328115,59.039131
00493,995400000,1970,1,1,0,21,35,0,0.658104,-9.144787,3.713868,-0.662888,-0.055760,0.041991,0.572502,0.102295,0.323321,-68.415291,-4.318909,59.078438
00494,5400000,1970,1,1,0,21,36,0,0.706617,-9.045191,3.654127,-0.643365,-0.080680,0.091169,0.563988,0.099842,0.325157,-68.784592,-4.288410,59.142757
00495,15400000,1970,1,1,0,21,36,0,0.672720,-8.950686,3.496761,-0.603849,-0.088416,0.098165,0.563915,0.097048,0.325139,-69.131653,-4.255359,59.210472
00496,25400000,1970,1,1,0,21,36,0,0.644395,-8.875381,3.297370,-0.571903,-0.104383,0.056181,0.572575,0.105089,0.323339,-69.460327,-4.247642,59.278393
00497,35400000,1970,1,1,0,21,36,0,0.871283,-8.386369,3.082138,-1.011507,-0.127790,0.166847,0.563849,0.088531,0.322540,-70.043404,-4.184531,59.382015
00498,45400000,1970,1,1,0,21,36,0,0.162422,-10.103086,3.336414,-1.116223,-0.071136,0.160643,0.563999,0.088396,0.319995,-70.683983,-4.112768,59.452747
00499,55400000,1970,1,1,0,21,36,0,1.176387,-9.223514,3.925247,-0.158911,-0.091569,0.136438,0.569600,0.091053,0.320473,-70.776451,-4.057506,59.529873
00500,65400000,1970,1,1,0,21,36,0,0.771892,-9.387794,3.592129,-0.244990,-0.021089,0.185229,0.572141,0.088325,0.323230,-70.916054,-3.962451,59.577965
00501,75400000,1970,1,1,0,21,36,0,0.944762,-9.021103,3.414144,-0.193889,0.040848,0.183189,0.574460,0.082938,0.328513,-71.023972,-3.856802,59.591461
00502,85400000,1970,1,1,0,21,36,0,0.683454,-9.182775,3.310904,-0.258868,0.076569,0.058755,0.569010,0.080147,0.325490,-71.166229,-3.811962,59.561558
00503,95400000,1970,1,1,0,21,36,0,0.642124,-9.194191,3.053311,-0.238518,0.007823,0.052073,0.577151,0.080075,0.328725,-71.299263,-3.783477,59.568069
00504,105400000,1970,1,1,0,21,36,0,0.702158,-9.357655,3.006151,-0.312299,-0.030351,0.108450,0.580584,0.087983,0.321375,-71.476570,-3.731359,59.606087
00505,115400000,1970,1,1,0,21,36,0,0.739888,-9.356228,3.002624,-0.382209,-0.082848,0.153612,0.566023,0.077556,0.327786,-71.696274,-3.664056,59.682297
00506,125400000,1970,1,1,0,21,36,0,0.706994,-9.135643,2.868233,-0.466611,-0.084176,0.163254,0.566251,0.074492,0.322679,-71.964355,-3.591414,59.756432
00507,135400000,1970,1,1,0,21,36,0,0.653700,-8.959622,2.858182,-0.537605,-0.039573,0.107028,0.574694,0.074151,0.320824,-72.270912,-3.541214,59.798069
00508,145400000,1970,1,1,0,21,36,0,0.614344,-9.035355,2.942974,-0.577064,-0.000439,0.026027,0.571707,0.071561,0.323120,-72.597847,-3.528262,59.805588
00509,155400000,1970,1,1,0,21,36,0,0.624146,-9.297376,2.995149,-0.564774,-0.005242,0.002795,0.563187,0.074831,0.327538,-72.917648,-3.528811,59.810272
00510,165400000,1970,1,1,0,21,36,0,0.644602,-9.347952,2.876836,-0.547433,-0.016802,0.004784,0.577313,0.068494,0.321018,-73.227913,-3.530168,59.819069
00511,175400000,1970,1,1,0,21,36,0,0.600532,-9.337117,2.746989,-0.545339,-0.022566,0.000159,0.568498,0.066311,0.327944,-73.537148,-3.534944,59.835243
00512,185400000,1970,1,1,0,21,36,0,0.591740,-9.272701,2.659821,-0.543161,-0.044206,0.008145,0.562976,0.060726,0.324902,-73.845932,-3.538744,59.860798
00513,195400000,1970,1,1,0,21,36,0,0.576104,-9.301842,2.522830,-0.550700,-0.073362,0.028621,0.579325,0.069100,0.333971,-74.160210,-3.535710,59.906353
00514,205400000,1970,1,1,0,21,36,0,0.632702,-9.187600,2.424330,-0.571977,-0.088817,0.036370,0.574327,0.065904,0.323314,-74.487282,-3.530561,59.961487
00515,215400000,1970,1,1,0,21,36,0,0.628405,-9.247478,2.540100,-0.614813,-0.098675,0.056886,0.568269,0.069376,0.333051,-74.839447,-3.515215,60.027317
00516,225400000,1970,1,1,0,21,36,0,0.805268,-9.154353,2.646048,-0.818047,-0.110697,0.141165,0.562675,0.060996,0.329992,-75.309174,-3.454535,60.108143
00517,235400000,1970,1,1,0,21,36,0,0.637205,-9.834248,2.367468,-0.730053,-0.064284,0.049649,0.573815,0.052069,0.325768,-75.726044,-3.437318,60.150757
00518,245400000,1970,1,1,0,21,36,0,0.909872,-9.586347,2.435980,-0.728518,-0.083967,-0.040644,0.576428,0.052135,0.328543,-76.141930,-3.472704,60.195019
00519,255400000,1970,1,1,0,21,36,0,0.731914,-9.691904,2.383316,-0.740288,-0.115721,-0.044690,0.576796,0.060382,0.326052,-76.565659,-3.514334,60.255486
00520,265400000,1970,1,1,0,21,36,0,0.726919,-9.589091,2.248545,-0.867303,-0.111724,0.028862,0.568888,0.051666,0.315129,-77.062630,-3.513929,60.323467
00521,275400000,1970,1,1,0,21,36,0,0.672787,-9.772865,1.980420,-0.741189,-0.103510,-0.032126,0.571051,0.052137,0.325538,-77.486626,-3.546034,60.380589
00522,285400000,1970,1,1,0,21,36,0,0.837991,-9.574329,1.938574,-0.742466,-0.101840,-0.077191,0.565529,0.046552,0.322497,-77.910995,-3.602752,60.428406
00523,295400000,1970,1,1,0,21,36,0,0.817884,-9.475418,1.964915,-0.890822,-0.075343,-0.049988,0.567546,0.041435,0.332869,-78.419708,-3.640703,60.465454
00524,305400000,1970,1,1,0,21,36,0,0.678620,-9.832222,1.745575,-0.846050,-0.041567,-0.019455,0.582040,0.043345,0.323858,-78.901810,-3.657371,60.485363
00525,315400000,1970,1,1,0,21,36,0,0.738267,-9.641010,1.723893,-0.816200,-0.038430,-0.033615,0.576368,0.037895,0.323362,-79.366615,-3.681469,60.507282
00526,325400000,1970,1,1,0,21,36,0,0.638729,-9.572953,1.791549,-0.830888,-0.071971,-0.022682,0.587574,0.037484,0.321737,-79.841156,-3.702726,60.547913
00527,335400000,1970,1,1,0,21,36,0,0.468015,-9.950796,1.859086,-0.817052,-0.154060,0.019753,0.573459,0.032375,0.323096,-80.311058,-3.707816,60.640934
00528,345400000,1970,1,1,0,21,36,0,0.541834,-9.674318,1.639931,-0.717113,-0.190225,0.007620,0.576067,0.038165,0.328451,-80.724960,-3.722481,60.749710
00529,355400000,1970,1,1,0,21,36,0,0.484923,-9.477881,1.550839,-0.732928,-0.188392,0.058616,0.579210,0.034897,0.321029,-81.148186,-3.707310,60.861073
00530,365400000,1970,1,1,0,21,36,0,0.574768,-9.476190,1.418813,-0.583144,-0.132500,-0.013031,0.576079,0.026718,0.323289,-81.483116,-3.727146,60.937290
00531,375400000,1970,1,1,0,21,36,0,0.541569,-9.332579,1.380289,-0.508990,-0.105771,-0.098141,0.581902,0.032034,0.321241,-81.774178,-3.792567,60.990017
00532,385400000,1970,1,1,0,21,36,0,0.472392,-9.296387,1.288628,-0.466653,-0.068964,-0.123584,0.573393,0.023858,0.320496,-82.039497,-3.869213,61.021336
00533,395400000,1970,1,1,0,21,36,0,0.282160,-9.364056,1.109394,-0.493907,-0.046037,-0.018638,0.581757,0.026446,0.321204,-82.320183,-3.884334,61.046967
00534,405400000,1970,1,1,0,21,36,0,0.436893,-9.469375,1.040170,-0.362472,-0.025738,0.017680,0.578843,0.026650,0.323519,-82.524963,-3.877197,61.064892
00535,415400000,1970,1,1,0,21,36,0,0.622919,-9.700651,1.095102,-0.331087,-0.011095,0.035178,0.589977,0.023445,0.321876,-82.711273,-3.858967,61.074608
00536,425400000,1970,1,1,0,21,36,0,0.729415,-9.599865,1.238305,-0.427903,0.034697,0.075226,0.576090,0.015272,0.318127,-82.951500,-3.814674,61.063026
00537,435400000,1970,1,1,0,21,36,0,0.764032,-10.177916,1.014442,-0.529015,0.077885,0.123771,0.578548,0.021197,0.326027,-83.248238,-3.739855,61.028671
00538,445400000,1970,1,1,0,21,36,0,0.696334,-9.891084,1.003526,-0.571977,0.130932,0.041957,0.578704,0.015338,0.320902,-83.567314,-3.708289,60.956993
00539,455400000,1970,1,1,0,21,36,0,0.655827,-10.008259,1.078570,-0.549264,0.093793,0.025761,0.583564,0.007224,0.328941,-83.874664,-3.688662,60.907127
00540,465400000,1970,1,1,0,21,36,0,0.660566,-9.776185,1.186322,-0.599974,0.036276,0.017046,0.573248,0.018270,0.320460,-84.213196,-3.677715,60.888493
00541,475400000,1970,1,1,0,21,36,0,0.536974,-9.693276,0.951269,-0.522119,-0.025702,-0.078763,0.581239,0.018334,0.326239,-84.509003,-3.724978,60.900345
00542,485400000,1970,1,1,0,21,36,0,0.425529,-9.541027,1.013457,-0.471822,-0.059506,-0.124924,0.581396,0.012476,0.321113,-84.777145,-3.800322,60.928955
00543,495400000,1970,1,1,0,21,36,0,0.511146,-9.584675,1.091580,-0.522351,-0.080814,-0.105414,0.575483,0.021536,0.330887,-85.075188,-3.865458,60.972176
00544,505400000,1970,1,1,0,21,36,0,0.668866,-10.045071,0.710374,-0.567460,-0.071464,-0.057071,0.583931,0.015471,0.326451,-85.398933,-3.902325,61.009613
00545,515400000,1970,1,1,0,21,36,0,0.918219,-10.144836,0.483580,-0.548395,-0.023830,-0.115448,0.580956,0.001434,0.323585,-85.709740,-3.970202,61.020031
00546,525400000,1970,1,1,0,21,36,0,0.967226,-10.153021,0.620444,-0.547349,-0.012605,-0.140448,0.586701,0.009679,0.324100,-86.019470,-4.051847,61.023457
00547,535400000,1970,1,1,0,21,36,0,0.780935,-10.127890,0.429182,-0.450085,0.006580,-0.181529,0.578337,0.007091,0.323392,-86.272606,-4.156242,61.014935
00548,545400000,1970,1,1,0,21,36,0,0.769420,-9.741149,0.504727,-0.442076,0.033927,-0.201339,0.573026,0.015611,0.322986,-86.519974,-4.270996,60.989395
00549,555400000,1970,1,1,0,21,36,0,0.742699,-9.789869,0.427849,-0.438215,0.087920,-0.240296,0.575795,0.009819,0.320635,-86.762642,-4.406334,60.931751
00550,565400000,1970,1,1,0,21,36,0,0.727787,-9.699212,0.545125,-0.481774,0.125769,-0.195668,0.584160,0.012407,0.321343,-87.028633,-4.515215,60.855492
00551,575400000,1970,1,1,0,21,36,0,0.819631,-9.689827,0.525481,-0.519387,0.138052,-0.198192,0.586256,0.004361,0.329153,-87.315506,-4.625567,60.773323
00552,585400000,1970,1,1,0,21,36,0,0.860227,-9.780539,0.402555,-0.546780,0.165470,-0.269037,0.586478,0.007020,0.326626,-87.616493,-4.776190,60.672646
00553,595400000,1970,1,1,0,21,36,0,0.908265,-9.816175,0.401343,-0.560046,0.181938,-0.340122,0.586328,0.007155,0.329171,-87.923889,-4.967669,60.562515
00554,605400000,1970,1,1,0,21,36,0,0.778560,-9.960287,0.265374,-0.546730,0.149101,-0.288775,0.592079,0.009676,0.327105,-88.225151,-5.130964,60.472828
00555,615400000,1970,1,1,0,21,36,0,0.814248,-10.098365,0.316566,-0.521707,0.119873,-0.226332,0.569666,0.010497,0.330354,-88.513550,-5.259442,60.402882
00556,625400000,1970,1,1,0,21,36,0,0.771826,-9.988612,0.258450,-0.482740,0.063916,-0.195780,0.589532,0.018127,0.326929,-88.782578,-5.371494,60.363026
00557,635400000,1970,1,1,0,21,36,0,0.877451,-9.768876,0.179213,-0.476561,0.058414,-0.216037,0.580716,0.015945,0.333855,-89.048286,-5.495404,60.330223
00558,645400000,1970,1,1,0,21,36,0,1.000465,-9.575467,0.032413,-0.440369,0.112258,-0.282997,0.588863,0.010150,0.334509,-89.290154,-5.657355,60.263702
00559,655400000,1970,1,1,0,21,36,0,1.008009,-9.535100,0.055245,-0.463304,0.212293,-0.382161,0.594470,0.007084,0.332406,-89.539169,-5.875837,60.141006
00560,665400000,1970,1,1,0,21,36,0,0.915980,-9.595366,0.048419,-0.579630,0.311228,-0.373898,0.580276,0.004904,0.336327,-89.848534,-6.089871,59.963268
00561,675400000,1970,1,1,0,21,36,0,1.074221,-9.603319,0.072528,-0.720554,0.396255,-0.282882,0.583113,0.007629,0.336575,-90.232941,-6.252854,59.735687
00562,685400000,1970,1,1,0,21,36,0,1.174188,-9.729825,0.000268,-0.739047,0.373737,-0.205386,0.574670,0.007971,0.338430,-90.628860,-6.372879,59.522907
00563,695400000,1970,1,1,0,21,36,0,1.174621,-9.905279,-0.048885,-0.687328,0.279294,-0.151144,0.568919,0.005449,0.340497,-91.000900,-6.462476,59.364288
00564,705400000,1970,1,1,0,21,36,0,1.191828,-9.969805,-0.152297,-0.640284,0.126389,-0.042139,0.571750,0.013898,0.343326,-91.355698,-6.488825,59.292847
00565,715400000,1970,1,1,0,21,36,0,1.130098,-9.953307,-0.184579,-0.618432,-0.039535,0.151177,0.557707,0.011583,0.344703,-91.708374,-6.402335,59.314655
00566,725400000,1970,1,1,0,21,36,0,1.135232,-9.739434,-0.276939,-0.563236,-0.165664,0.286567,0.579903,0.002380,0.341399,-92.037125,-6.235815,59.404697
00567,735400000,1970,1,1,0,21,36,0,1.016380,-9.474423,-0.266459,-0.530485,-0.192330,0.277305,0.574309,-0.005999,0.338339,-92.348381,-6.073529,59.512375
00568,745400000,1970,1,1,0,21,36,0,0.954900,-9.315966,-0.191244,-0.467856,-0.205178,0.224627,0.579686,-0.006002,0.341344,-92.624268,-5.940527,59.626774
00569,755400000,1970,1,1,0,21,36,0,0.915950,-9.160159,-0.121390,-0.468022,-0.180846,0.191793,0.560410,-0.002726,0.339752,-92.898613,-5.826435,59.727097
00570,765400000,1970,1,1,0,21,36,0,0.820884,-9.288418,-0.225411,-0.415744,-0.224656,0.189444,0.580210,-0.003613,0.333728,-93.145302,-5.711931,59.850433
00571,775400000,1970,1,1,0,21,36,0,0.640167,-9.135337,-0.271529,-0.367380,-0.270821,0.250329,0.579548,-0.017313,0.338726,-93.366341,-5.560583,60.001259
00572,785400000,1970,1,1,0,21,36,0,1.716802,-10.144389,-1.164155,-0.289948,-0.226439,0.300715,0.571707,-0.017512,0.330402,-93.539955,-5.381439,60.121990
00573,795400000,1970,1,1,0,21,36,0,1.128363,-10.060932,-1.044680,-0.238139,-0.042507,0.186215,0.571550,-0.011654,0.335528,-93.674118,-5.274079,60.141361
00574,805400000,1970,1,1,0,21,36,0,0.696964,-9.795747,-0.547546,-0.134689,-0.011520,0.107619,0.585677,-0.017991,0.329007,-93.747551,-5.212781,60.144836
00575,815400000,1970,1,1,0,21,36,0,0.609564,-9.442667,-0.508703,-0.087587,-0.047527,0.174336,0.585972,-0.012538,0.326499,-93.795670,-5.111966,60.168934
00576,825400000,1970,1,1,0,21,36,0,0.632602,-9.593144,-0.605971,-0.013814,-0.081371,0.267550,0.577307,-0.014856,0.330880,-93.802834,-4.956566,60.208405
00577,835400000,1970,1,1,0,21,36,0,1.112469,-10.078596,-1.118918,0.055506,-0.036152,0.240157,0.577385,-0.017785,0.328317,-93.768074,-4.818539,60.220760
00578,845400000,1970,1,1,0,21,36,0,1.371379,-10.455441,-1.532170,0.113792,0.181918,0.141008,0.574248,-0.020240,0.333159,-93.689766,-4.745356,60.112598
00579,855400000,1970,1,1,0,21,36,0,1.404428,-10.479454,-1.279901,0.160335,0.432009,0.040417,0.579409,-0.028624,0.336109,-93.573357,-4.738587,59.864056
00580,865400000,1970,1,1,0,21,36,0,1.098087,-10.343394,-0.870470,0.134652,0.587110,-0.021231,0.579710,-0.028895,0.331019,-93.464401,-4.772040,59.529438
00581,875400000,1970,1,1,0,21,36,0,0.718304,-10.736125,-0.617337,0.107755,0.645032,-0.155351,0.576483,-0.016974,0.343586,-93.367996,-4.883586,59.167362
00582,885400000,1970,1,1,0,21,36,0,0.365927,-11.152972,-0.376649,-0.113827,0.662809,-0.324710,0.576188,-0.022427,0.346094,-93.397179,-5.092384,58.798996
00583,895400000,1970,1,1,0,21,36,0,0.732068,-10.824433,-0.012582,-0.263758,0.560869,-0.473736,0.576182,-0.016704,0.348675,-93.516434,-5.383353,58.494873
00584,905400000,1970,1,1,0,21,36,0,0.852228,-10.346985,0.200581,-0.330606,0.224990,-0.483618,0.567884,-0.010774,0.350567,-93.691185,-5.668644,58.385094
00585,915400000,1970,1,1,0,21,36,0,0.704173,-9.940772,-0.291440,-0.370693,-0.026082,-0.415613,0.570576,-0.013637,0.350778,-93.902763,-5.905903,58.416786
00586,925400000,1970,1,1,0,21,36,0,0.867397,-9.316297,-0.707775,-0.360905,-0.100371,-0.302177,0.575959,-0.019363,0.351202,-94.112923,-6.075233,58.488003
00587,935400000,1970,1,1,0,21,36,0,0.943637,-9.016180,-1.022027,-0.332302,0.000028,-0.139738,0.567890,-0.016498,0.347985,-94.300034,-6.155714,58.495640
00588,945400000,1970,1,1,0,21,36,0,1.057618,-8.932940,-0.651275,-0.286331,0.087092,0.046061,0.576471,-0.005528,0.348748,-94.454597,-6.133832,58.444931
00589,955400000,1970,1,1,0,21,36,0,1.077075,-9.115566,-0.306347,-0.301739,0.065952,0.152417,0.581782,-0.014048,0.349154,-94.618797,-6.050393,58.402954
00590,965400000,1970,1,1,0,21,36,0,0.992792,-9.209276,-0.267941,-0.349648,-0.013212,0.125494,0.559971,-0.013767,0.342224,-94.815384,-5.978727,58.407242
00591,975400000,1970,1,1,0,21,36,0,0.922734,-8.995375,-0.400607,-0.395411,-0.038539,0.063614,0.565053,-0.019223,0.347737,-95.039970,-5.941127,58.427059
00592,985400000,1970,1,1,0,21,36,0,0.889961,-8.887877,-0.419911,-0.469025,-0.004743,0.005078,0.567739,-0.016362,0.350530,-95.305046,-5.938586,58.430256
00593,995400000,1970,1,1,0,21,36,0,0.850391,-8.991202,-0.496118,-0.545490,-0.022411,-0.029176,0.573123,-0.022088,0.350954,-95.615143,-5.954614,58.445766
00594,5400000,1970,1,1,0,21,37,0,1.043002,-9.071836,-0.598280,-0.537004,-0.126261,0.036485,0.565282,-0.022287,0.342630,-95.926163,-5.927125,58.517723
00595,15400000,1970,1,1,0,21,37,0,1.186255,-9.434201,-0.998413,-0.477137,-0.224840,0.145136,0.570738,-0.025219,0.343071,-96.207893,-5.831394,58.639755
00596,25400000,1970,1,1,0,21,37,0,1.279828,-9.953180,-1.337456,-0.390539,-0.243079,0.147134,0.570220,-0.033331,0.348106,-96.440788,-5.732831,58.771587
00597,35400000,1970,1,1,0,21,37,0,1.303175,-10.022907,-1.488108,-0.345251,-0.170524,0.048863,0.573279,-0.027946,0.345828,-96.644058,-5.694442,58.866253
00598,45400000,1970,1,1,0,21,37,0,1.309548,-9.761413,-1.416282,-0.351421,-0.044168,-0.051491,0.573279,-0.027946,0.345828,-96.844315,-5.721344,58.896667
00599,55400000,1970,1,1,0,21,37,0,1.234177,-9.488513,-1.241975,-0.405950,0.053288,-0.105347,0.573724,-0.022629,0.340775,-97.070671,-5.785511,58.875137
00600,65400000,1970,1,1,0,21,37,0,1.043676,-9.446575,-1.094930,-0.455059,0.097516,-0.143392,0.578506,-0.027814,0.351377,-97.322853,-5.874586,58.832546
00601,75400000,1970,1,1,0,21,37,0,0.906999,-9.500617,-1.171802,-0.486406,0.089606,-0.206192,0.575977,-0.036532,0.343458,-97.593925,-5.998933,58.797676
00602,85400000,1970,1,1,0,21,37,0,0.875003,-9.795143,-1.397586,-0.442067,0.042721,-0.277311,0.573273,-0.022223,0.348409,-97.842987,-6.160196,58.796852
00603,95400000,1970,1,1,0,21,37,0,0.988969,-10.145429,-1.514684,-0.407934,-0.018876,-0.316435,0.570521,-0.033601,0.343017,-98.076729,-6.338793,58.834187
00604,105400000,1970,1,1,0,21,37,0,0.995826,-10.071323,-1.764411,-0.377371,-0.050897,-0.307981,0.576037,-0.022292,0.348639,-98.295097,-6.509825,58.890102
00605,115400000,1970,1,1,0,21,37,0,0.979163,-9.892837,-1.790656,-0.362333,-0.033363,-0.214775,0.586660,-0.039332,0.349450,-98.503052,-6.629289,58.928837
00606,125400000,1970,1,1,0,21,37,0,1.114480,-9.796919,-1.671259,-0.333198,-0.028380,-0.095993,0.576121,-0.030944,0.343495,-98.692894,-6.681746,58.955189
00607,135400000,1970,1,1,0,21,37,0,1.116626,-9.818629,-1.652691,-0.295768,-0.034634,-0.029984,0.575971,-0.030809,0.346040,-98.861053,-6.696200,58.979424
00608,145400000,1970,1,1,0,21,37,0,1.122347,-9.730395,-1.649066,-0.269125,-0.024830,-0.019705,0.570527,-0.039324,0.340436,-99.013229,-6.705646,58.996704
00609,155400000,1970,1,1,0,21,37,0,1.181222,-9.660699,-1.645905,-0.240894,-0.015947,-0.018567,0.579036,-0.031148,0.341180,-99.148628,-6.715199,59.009010
00610,165400000,1970,1,1,0,21,37,0,1.214824,-9.672987,-1.587657,-0.237109,-0.019664,-0.008584,0.576350,-0.034009,0.338387,-99.281967,-6.718744,59.023464
00611,175400000,1970,1,1,0,21,37,0,1.262542,-9.782455,-1.635804,-0.222235,-0.052895,-0.016435,0.581649,-0.031082,0.343955,-99.409111,-6.723607,59.057198
00612,185400000,1970,1,1,0,21,37,0,1.260177,-9.587431,-1.704420,-0.180150,-0.063063,-0.041113,0.576488,-0.022697,0.341005,-99.513092,-6.741391,59.098560
00613,195400000,1970,1,1,0,21,37,0,1.208677,-9.489353,-1.626934,-0.133541,-0.060817,-0.020351,0.578741,-0.036601,0.343688,-99.590004,-6.747597,59.136890
00614,205400000,1970,1,1,0,21,37,0,1.160809,-9.472329,-1.536843,-0.132788,-0.070189,0.033697,0.576055,-0.039462,0.340896,-99.666512,-6.722306,59.174629
00615,215400000,1970,1,1,0,21,37,0,1.285015,-9.342213,-1.500614,-0.118461,-0.108696,0.100135,0.579041,-0.036871,0.338599,-99.736565,-6.655742,59.228088
00616,225400000,1970,1,1,0,21,37,0,1.332143,-9.443020,-1.616012,-0.113460,-0.127551,0.172118,0.568208,-0.033937,0.335152,-99.804047,-6.546644,59.285782
00617,235400000,1970,1,1,0,21,37,0,1.246958,-9.632357,-1.685884,-0.132114,-0.104650,0.211720,0.579041,-0.036871,0.338599,-99.880203,-6.417349,59.325779
00618,245400000,1970,1,1,0,21,37,0,1.183027,-9.668243,-1.659485,-0.158056,-0.062252,0.205018,0.576422,-0.031215,0.338405,-99.968498,-6.295971,59.342556
00619,255400000,1970,1,1,0,21,37,0,1.167948,-9.686413,-1.664737,-0.173505,-0.040636,0.165391,0.581739,-0.045457,0.336230,-100.064697,-6.199087,59.350765
00620,265400000,1970,1,1,0,21,37,0,1.013171,-9.889213,-1.802267,-0.156245,-0.037776,0.142179,0.587634,-0.037348,0.334199,-100.151093,-6.115569,59.359753
00621,275400000,1970,1,1,0,21,37,0,0.910890,-10.177795,-1.990855,-0.095613,-0.037707,0.103670,0.573447,-0.045251,0.335540,-100.203087,-6.053763,59.373421
00622,285400000,1970,1,1,0,21,37,0,0.948298,-10.407252,-2.127251,-0.025847,-0.022389,0.032228,0.578608,-0.053636,0.338490,-100.214981,-6.033775,59.383331
00623,295400000,1970,1,1,0,21,37,0,0.953069,-10.332367,-2.101621,0.027346,0.017148,-0.042293,0.578975,-0.045389,0.336000,-100.194817,-6.059836,59.378769
00624,305400000,1970,1,1,0,21,37,0,0.958050,-9.897768,-1.891613,0.050496,0.071958,-0.098439,0.584575,-0.042732,0.336478,-100.158745,-6.123097,59.349995
00625,315400000,1970,1,1,0,21,37,0,0.847122,-9.694047,-1.580247,0.042299,0.097006,-0.143911,0.579114,-0.034077,0.338617,-100.126244,-6.214533,59.311962
00626,325400000,1970,1,1,0,21,37,0,0.822985,-9.439710,-1.423971,-0.031698,0.090940,-0.167403,0.587412,-0.040007,0.336726,-100.136734,-6.318577,59.278938
00627,335400000,1970,1,1,0,21,37,0,0.967265,-9.089894,-1.410416,-0.055731,0.072107,-0.130194,0.578903,-0.048183,0.335981,-100.161682,-6.399751,59.253777
00628,345400000,1970,1,1,0,21,37,0,1.034696,-9.157397,-1.449234,-0.085753,0.057626,-0.061917,0.578819,-0.039530,0.341125,-100.203979,-6.440964,59.228527
00629,355400000,1970,1,1,0,21,37,0,1.136913,-9.245970,-1.450755,-0.110557,0.044966,-0.014972,0.584275,-0.042462,0.341567,-100.260727,-6.454454,59.205563
00630,365400000,1970,1,1,0,21,37,0,1.100052,-9.465617,-1.527877,-0.134028,0.025775,0.001345,0.581432,-0.039464,0.343900,-100.331963,-6.456784,59.192566
00631,375400000,1970,1,1,0,21,37,0,1.069021,-9.767194,-1.657305,-0.158572,0.020338,-0.025697,0.573441,-0.039528,0.338121,-100.417931,-6.473826,59.184998
00632,385400000,1970,1,1,0,21,37,0,1.155423,-9.642318,-1.269354,-0.177513,-0.053349,-0.089453,0.587334,-0.037078,0.339289,-100.520195,-6.519126,59.226196
00633,395400000,1970,1,1,0,21,37,0,1.281631,-9.686356,-1.881670,-0.160633,-0.098538,-0.175019,0.581727,-0.034011,0.341392,-100.616844,-6.607799,59.303322
00634,405400000,1970,1,1,0,21,37,0,1.127507,-9.346851,-1.694964,-0.182986,-0.040311,-0.247706,0.581577,-0.033876,0.343937,-100.723518,-6.743441,59.353947
00635,415400000,1970,1,1,0,21,37,0,1.065628,-9.070831,-1.527372,-0.235686,-0.026172,-0.217804,0.584202,-0.045256,0.341549,-100.859207,-6.863665,59.393364
00636,425400000,1970,1,1,0,21,37,0,1.121111,-8.979772,-1.574161,-0.263220,-0.034503,-0.135393,0.579041,-0.036871,0.338599,-101.010254,-6.936529,59.429211
00637,435400000,1970,1,1,0,21,37,0,1.234990,-9.204785,-1.788729,-0.257306,-0.040778,-0.051312,0.576422,-0.031215,0.338405,-101.157265,-6.961318,59.459755
00638,445400000,1970,1,1,0,21,37,0,1.454985,-9.778565,-2.003991,-0.239032,-0.031941,-0.013565,0.587629,-0.031625,0.336781,-101.292702,-6.965820,59.481018
00639,455400000,1970,1,1,0,21,37,0,1.323334,-11.254929,-2.450606,-0.222750,-0.010392,-0.257358,0.579114,-0.034077,0.338617,-101.420776,-7.109650,59.518871
00640,465400000,1970,1,1,0,21,37,0,1.135760,-10.367413,-2.517987,-0.154509,0.034419,-0.410446,0.573508,-0.031011,0.340720,-101.508904,-7.344466,59.547550
00641,475400000,1970,1,1,0,21,37,0,1.029858,-9.932977,-2.204870,-0.046633,0.028754,-0.332334,0.573875,-0.022764,0.338230,-101.534599,-7.534758,59.570320
00642,485400000,1970,1,1,0,21,37,0,1.140980,-9.472775,-1.994174,-0.000787,-0.000842,-0.218079,0.585232,-0.023309,0.334060,-101.534576,-7.657507,59.597889
00643,495400000,1970,1,1,0,21,37,0,1.262179,-9.264190,-1.636441,0.006789,-0.014237,-0.167877,0.570599,-0.036530,0.340454,-101.530502,-7.750548,59.628597
00644,505400000,1970,1,1,0,21,37,0,1.244191,-9.394272,-1.416822,-0.039466,-0.060509,-0.168641,0.570894,-0.031077,0.337945,-101.556557,-7.838694,59.682014
00645,515400000,1970,1,1,0,21,37,0,1.299029,-9.445712,-1.631199,-0.141255,-0.108205,-0.191481,0.587478,-0.031490,0.339325,-101.645088,-7.934110,59.766869
00646,525400000,1970,1,1,0,21,37,0,1.403353,-9.105726,-1.821719,-0.173607,-0.138448,-0.165274,0.585316,-0.031961,0.328916,-101.754272,-8.011165,59.867256
00647,535400000,1970,1,1,0,21,37,0,1.430565,-9.292145,-2.064968,-0.144496,-0.120805,-0.066778,0.581733,-0.039734,0.338811,-101.843857,-8.034866,59.946800
00648,545400000,1970,1,1,0,21,37,0,1.519045,-9.320294,-2.049285,-0.134622,-0.080456,0.031498,0.582028,-0.034281,0.336302,-101.922981,-8.008114,59.988705
00649,555400000,1970,1,1,0,21,37,0,1.455603,-9.441282,-2.037650,-0.126514,-0.058371,0.110810,0.582329,-0.034551,0.331213,-101.994339,-7.939497,60.009987
00650,565400000,1970,1,1,0,21,37,0,1.394192,-9.273930,-2.001860,-0.107394,-0.040397,0.169610,0.581956,-0.037075,0.336284,-102.052330,-7.840044,60.014709
00651,575400000,1970,1,1,0,21,37,0,1.306255,-9.490680,-1.924423,-0.069957,-0.028859,0.207701,0.579041,-0.036871,0.338599,-102.087364,-7.720619,60.007038
00652,585400000,1970,1,1,0,21,37,0,1.267065,-9.620849,-1.914775,-0.078905,-0.020794,0.178416,0.585015,-0.031691,0.334006,-102.127388,-7.618572,59.998016
00653,595400000,1970,1,1,0,21,37,0,1.261603,-9.517404,-1.969997,-0.079795,0.001290,0.117357,0.582558,-0.037616,0.326105,-102.167252,-7.553391,59.985775
00654,605400000,1970,1,1,0,21,37,0,1.166867,-9.501472,-1.985763,-0.066464,0.049746,0.059954,0.582106,-0.037210,0.333739,-102.196785,-7.526239,59.953224
00655,615400000,1970,1,1,0,21,37,0,1.302572,-9.678639,-1.822012,-0.069702,0.047668,0.007927,0.587562,-0.040142,0.334181,-102.229202,-7.527979,59.926491
00656,625400000,1970,1,1,0,21,37,0,1.352710,-9.722238,-1.922880,-0.070427,-0.010744,-0.048150,0.579415,-0.034348,0.333528,-102.267242,-7.554028,59.940273
00657,635400000,1970,1,1,0,21,37,0,1.446952,-9.704913,-2.090672,-0.058731,-0.042396,-0.049352,0.576283,-0.042526,0.335788,-102.300964,-7.576890,59.971577
00658,645400000,1970,1,1,0,21,37,0,1.325465,-9.723219,-2.151043,-0.060548,-0.035468,-0.012236,0.579415,-0.034348,0.333528,-102.334610,-7.579797,59.993473
00659,655400000,1970,1,1,0,21,37,0,1.316612,-9.589890,-2.097882,-0.054678,-0.044656,-0.003915,0.576951,-0.034549,0.328208,-102.365463,-7.576908,60.021305
00660,665400000,1970,1,1,0,21,37,0,1.342638,-9.510953,-2.093335,-0.048317,-0.043619,0.021177,0.585099,-0.040343,0.328862,-102.392181,-7.560102,60.045757
00661,675400000,1970,1,1,0,21,37,0,1.242616,-9.487408,-1.982274,-0.050640,-0.056876,0.059555,0.587713,-0.040277,0.331636,-102.420555,-7.520163,60.072937
00662,685400000,1970,1,1,0,21,37,0,1.285381,-9.512826,-1.990883,-0.045531,-0.082452,0.052900,0.585099,-0.040343,0.328862,-102.447998,-7.480786,60.114716
00663,695400000,1970,1,1,0,21,37,0,1.369595,-9.495654,-2.145028,-0.040280,-0.073785,0.018768,0.585238,-0.029032,0.331479,-102.472298,-7.461552,60.155842
00664,705400000,1970,1,1,0,21,37,0,1.428158,-9.480636,-2.188607,-0.041988,-0.015197,-0.023968,0.587713,-0.040277,0.331636,-102.493973,-7.473481,60.169193
00665,715400000,1970,1,1,0,21,37,0,1.525292,-9.578127,-2.101146,-0.035576,0.025758,-0.091245,0.574410,-0.031821,0.325452,-102.510124,-7.528111,60.167484
00666,725400000,1970,1,1,0,21,37,0,1.431748,-9.540871,-2.056322,-0.051740,0.047315,-0.152763,0.579487,-0.031554,0.333546,-102.534882,-7.619835,60.161549
00667,735400000,1970,1,1,0,21,37,0,1.403145,-9.384843,-2.060948,-0.073797,0.063413,-0.175981,0.584648,-0.039938,0.336496,-102.571457,-7.726535,60.148731
00668,745400000,1970,1,1,0,21,37,0,1.264362,-9.402940,-2.065523,-0.115667,0.081211,-0.153663,0.579342,-0.037142,0.333509,-102.630302,-7.822999,60.123199
00669,755400000,1970,1,1,0,21,37,0,1.235334,-9.349331,-1.994350,-0.133676,0.066204,-0.103104,0.585099,-0.040343,0.328862,-102.699699,-7.889343,60.100384
00670,765400000,1970,1,1,0,21,37,0,1.146186,-9.356229,-2.034102,-0.134126,0.036728,-0.036700,0.579649,-0.043135,0.325839,-102.770485,-7.914880,60.087204
00671,775400000,1970,1,1,0,21,37,0,1.134701,-9.362423,-2.018199,-0.167867,0.019147,0.021759,0.584949,-0.040208,0.331406,-102.860939,-7.905549,60.075703
00672,785400000,1970,1,1,0,21,37,0,1.199454,-9.263307,-1.976483,-0.215876,-0.009986,0.057750,0.568358,-0.034072,0.332608,-102.980522,-7.872404,60.075577
00673,795400000,1970,1,1,0,21,37,0,1.257737,-9.272865,-1.994063,-0.269053,-0.041806,0.064237,0.595776,-0.037420,0.337434,-103.132874,-7.831513,60.090767
00674,805400000,1970,1,1,0,21,37,0,1.346960,-9.235973,-2.105663,-0.329220,-0.050658,0.055412,0.579342,-0.037142,0.333509,-103.320511,-7.794324,60.114742
00675,815400000,1970,1,1,0,21,37,0,1.384822,-9.146895,-2.295047,-0.332464,-0.029552,0.045769,0.595932,-0.043278,0.332308,-103.508537,-7.765257,60.126381
00676,825400000,1970,1,1,0,21,37,0,1.400878,-9.350429,-2.380117,-0.324405,0.016116,0.028497,0.590994,-0.032234,0.326832,-103.688805,-7.751920,60.116512
00677,835400000,1970,1,1,0,21,37,0,1.398160,-9.459463,-2.427257,-0.311844,0.053928,0.016061,0.582034,-0.040004,0.333721,-103.859230,-7.750689,60.087345
00678,845400000,1970,1,1,0,21,37,0,1.337461,-9.487967,-2.340649,-0.300352,0.074791,0.016972,0.593018,-0.043074,0.334623,-104.021477,-7.751923,60.043243
00679,855400000,1970,1,1,0,21,37,0,1.279426,-9.459304,-2.258052,-0.290899,0.048919,0.010857,0.585105,-0.046067,0.326281,-104.180374,-7.753067,60.016163
00680,865400000,1970,1,1,0,21,37,0,1.192097,-9.508219,-2.315391,-0.264019,0.001242,-0.009517,0.588013,-0.040547,0.326547,-104.327873,-7.758873,60.019005
00681,875400000,1970,1,1,0,21,37,0,1.242928,-9.448100,-2.487963,-0.246499,-0.028182,-0.032882,0.587797,-0.048929,0.326492,-104.467987,-7.773448,60.041965
00682,885400000,1970,1,1,0,21,37,0,1.346634,-9.398855,-2.537365,-0.231103,-0.027986,-0.047294,0.584581,-0.048455,0.333897,-104.599594,-7.795988,60.066097
00683,895400000,1970,1,1,0,21,37,0,1.368091,-9.472319,-2.520972,-0.235457,-0.032285,-0.064657,0.587785,-0.037483,0.331655,-104.734390,-7.827471,60.093960
00684,905400000,1970,1,1,0,21,37,0,1.624192,-9.093163,-2.486049,-0.216606,-0.047052,-0.056958,0.573826,-0.048450,0.327887,-104.859360,-7.852469,60.130836
00685,915400000,1970,1,1,0,21,37,0,1.268031,-9.118061,-2.332221,-0.183524,-0.062132,0.024209,0.579348,-0.042865,0.330928,-104.964897,-7.830225,60.162575
00686,925400000,1970,1,1,0,21,37,0,1.135456,-9.138470,-2.240155,-0.203794,-0.108806,0.084390,0.585183,-0.048996,0.323718,-105.084343,-7.767679,60.212196
00687,935400000,1970,1,1,0,21,37,0,1.286029,-9.308312,-2.360199,-0.216265,-0.126746,0.099991,0.576662,-0.045725,0.328135,-105.211845,-7.693722,60.270512
00688,945400000,1970,1,1,0,21,37,0,1.223179,-9.353284,-2.389574,-0.228593,-0.136289,0.091653,0.573676,-0.048315,0.330432,-105.347221,-7.622794,60.333439
00689,955400000,1970,1,1,0,21,37,0,1.087043,-9.420059,-2.481203,-0.235136,-0.125065,0.073947,0.587802,-0.054653,0.323911,-105.485802,-7.563206,60.392227
00690,965400000,1970,1,1,0,21,37,0,1.110899,-9.472240,-2.491004,-0.242686,-0.112748,0.035428,0.582485,-0.040410,0.326087,-105.628487,-7.526631,60.452408
00691,975400000,1970,1,1,0,21,37,0,1.202185,-9.418969,-2.484253,-0.243043,-0.118869,-0.004373,0.573982,-0.054308,0.322761,-105.772606,-7.510911,60.521385
00692,985400000,1970,1,1,0,21,37,0,1.175868,-9.248157,-2.465969,-0.239956,-0.121765,-0.054777,0.595944,-0.054724,0.327146,-105.916191,-7.522352,60.598423
00693,995400000,1970,1,1,0,21,37,0,1.189570,-9.102697,-2.406564,-0.233108,-0.126987,-0.085073,0.584778,-0.054351,0.328831,-106.056900,-7.549466,60.685009
00694,5400000,1970,1,1,0,21,38,0,1.197240,-9.079881,-2.403366,-0.228412,-0.126638,-0.099079,0.587771,-0.057484,0.323952,-106.195229,-7.584135,60.771778
00695,15400000,1970,1,1,0,21,38,0,1.316741,-9.098745,-2.572737,-0.227437,-0.138610,-0.115690,0.585007,-0.057416,0.323722,-106.334305,-7.625800,60.869267
00696,25400000,1970,1,1,0,21,38,0,1.362504,-9.257421,-2.879026,-0.183681,-0.126787,-0.095438,0.590976,-0.046510,0.321710,-106.447083,-7.658041,60.956493
00697,35400000,1970,1,1,0,21,38,0,1.433028,-9.422526,-3.053528,-0.126241,-0.079823,-0.068709,0.596728,-0.043988,0.319643,-106.522972,-7.683084,61.014908
00698,45400000,1970,1,1,0,21,38,0,1.444667,-9.501813,-3.033653,-0.072666,-0.031618,-0.046952,0.593602,-0.057892,0.319322,-106.564117,-7.703983,61.043301
00699,55400000,1970,1,1,0,21,38,0,1.413071,-9.437599,-2.912508,-0.058202,0.000581,-0.044997,0.585302,-0.051961,0.321213,-106.594528,-7.729069,61.051674
00700,65400000,1970,1,1,0,21,38,0,1.317904,-9.294892,-2.767438,-0.072719,0.029716,-0.050790,0.588289,-0.049371,0.318916,-106.631241,-7.762085,61.044449
00701,75400000,1970,1,1,0,21,38,0,1.296766,-9.162868,-2.685259,-0.106489,0.062009,-0.023970,0.596210,-0.052102,0.324679,-106.684303,-7.785699,61.016117
00702,85400000,1970,1,1,0,21,38,0,1.367687,-9.036119,-2.602301,-0.158201,0.088048,0.007706,0.590909,-0.055029,0.319110,-106.764290,-7.796257,60.967724
00703,95400000,1970,1,1,0,21,38,0,1.401203,-9.000357,-2.563578,-0.181019,0.097923,0.014687,0.593746,-0.052303,0.319358,-106.856438,-7.804695,60.912987
00704,105400000,1970,1,1,0,21,38,0,1.379188,-9.047513,-2.591279,-0.202774,0.097237,0.032612,0.584856,-0.057280,0.326268,-106.960709,-7.803280,60.855976
00705,115400000,1970,1,1,0,21,38,0,1.358310,-9.075227,-2.679370,-0.245546,0.097378,0.049171,0.593084,-0.066006,0.324358,-107.089073,-7.792953,60.794033
00706,125400000,1970,1,1,0,21,38,0,1.373324,-9.192455,-2.665693,-0.280613,0.098188,0.036075,0.590608,-0.054759,0.324201,-107.237793,-7.790061,60.735245
00707,135400000,1970,1,1,0,21,38,0,1.359036,-9.327282,-2.823488,-0.331842,0.095917,-0.002389,0.582242,-0.057347,0.323492,-107.416946,-7.807993,60.684925
00708,145400000,1970,1,1,0,21,38,0,1.301235,-9.265728,-2.922608,-0.378013,0.118376,-0.029372,0.584935,-0.060210,0.323704,-107.621445,-7.844711,60.626072
00709,155400000,1970,1,1,0,21,38,0,1.383747,-9.323459,-2.902108,-0.378607,0.132723,-0.051260,0.584706,-0.057145,0.328813,-107.825722,-7.896075,60.563679
00710,165400000,1970,1,1,0,21,38,0,1.284615,-9.410958,-2.844840,-0.364670,0.093106,-0.063983,0.587476,-0.062939,0.326461,-108.025307,-7.947614,60.525162
00711,175400000,1970,1,1,0,21,38,0,1.359741,-9.367285,-2.923511,-0.373741,0.036444,-0.061973,0.584266,-0.068189,0.331285,-108.234360,-7.988069,60.518169
00712,185400000,1970,1,1,0,21,38,0,1.317439,-9.269723,-3.073805,-0.406719,0.005310,-0.018503,0.584935,-0.060210,0.323704,-108.463585,-7.999313,60.519180
00713,195400000,1970,1,1,0,21,38,0,1.427345,-9.208323,-3.071965,-0.416834,0.037215,0.002353,0.584645,-0.071389,0.323631,-108.695633,-8.005042,60.501114
00714,205400000,1970,1,1,0,21,38,0,1.384551,-9.171934,-3.088100,-0.449078,0.055800,-0.013218,0.590169,-0.065802,0.326673,-108.945152,-8.022738,60.474632
00715,215400000,1970,1,1,0,21,38,0,1.445460,-9.117167,-3.095479,-0.460282,0.077888,-0.030302,0.587705,-0.066003,0.321352,-109.199852,-8.053927,60.439983
00716,225400000,1970,1,1,0,21,38,0,1.465502,-9.242363,-3.158100,-0.457493,0.070276,-0.043859,0.571195,-0.068520,0.317409,-109.453903,-8.091158,60.412552
00717,235400000,1970,1,1,0,21,38,0,1.468454,-9.368426,-3.206857,-0.468737,0.043121,-0.051993,0.576496,-0.065593,0.322978,-109.716705,-8.127687,60.400185
00718,245400000,1970,1,1,0,21,38,0,1.473966,-9.369757,-3.316936,-0.455249,0.022376,-0.061549,0.584712,-0.062870,0.326231,-109.973686,-8.165380,60.401482
00719,255400000,1970,1,1,0,21,38,0,1.488393,-9.396944,-3.354676,-0.419938,-0.004213,-0.063080,0.579188,-0.068456,0.323189,-110.212532,-8.198670,60.418365
00720,265400000,1970,1,1,0,21,38,0,1.411667,-9.432909,-3.249929,-0.378823,-0.051590,-0.073272,0.584790,-0.065799,0.323668,-110.431801,-8.227947,60.462509
00721,275400000,1970,1,1,0,21,38,0,1.369815,-9.412691,-3.360405,-0.332975,-0.123719,-0.079859,0.581953,-0.068525,0.323419,-110.630676,-8.246097,60.548092
00722,285400000,1970,1,1,0,21,38,0,1.401722,-9.359330,-3.499976,-0.316228,-0.170242,-0.075063,0.590392,-0.063143,0.324146,-110.823410,-8.251950,60.656937
00723,295400000,1970,1,1,0,21,38,0,1.493939,-9.377040,-3.535045,-0.302193,-0.181596,-0.088000,0.590548,-0.069002,0.319019,-111.009407,-8.262058,60.775959
00724,305400000,1970,1,1,0,21,38,0,1.376307,-9.237547,-3.580658,-0.274296,-0.190155,-0.114717,0.579489,-0.068727,0.318099,-111.180923,-8.284317,60.904892
00725,315400000,1970,1,1,0,21,38,0,1.441497,-9.249533,-3.674329,-0.261401,-0.184007,-0.106960,0.593318,-0.074795,0.316667,-111.344391,-8.303338,61.027237
00726,325400000,1970,1,1,0,21,38,0,1.468993,-9.351477,-3.845122,-0.250422,-0.136675,-0.083496,0.590849,-0.069272,0.313928,-111.497192,-8.319407,61.120823
00727,335400000,1970,1,1,0,21,38,0,1.546547,-9.423014,-3.819708,-0.230468,-0.076044,-0.085710,0.590247,-0.068732,0.324110,-111.633980,-8.349174,61.182499
00728,345400000,1970,1,1,0,21,38,0,1.513593,-9.420428,-3.791625,-0.211583,-0.028018,-0.104119,0.588090,-0.074928,0.311117,-111.756798,-8.398791,61.219875
00729,355400000,1970,1,1,0,21,38,0,1.454352,-9.338193,-3.803393,-0.187670,0.008206,-0.089498,0.593758,-0.063752,0.314195,-111.862648,-8.448264,61.237148
00730,365400000,1970,1,1,0,21,38,0,1.457965,-9.359567,-3.706616,-0.167526,0.028324,-0.078574,0.596300,-0.066480,0.316952,-111.955009,-8.496204,61.242100
00731,375400000,1970,1,1,0,21,38,0,1.442081,-9.260241,-3.676358,-0.155038,0.038461,-0.105553,0.582187,-0.077314,0.315729,-112.040329,-8.560640,61.246368
00732,385400000,1970,1,1,0,21,38,0,1.433812,-9.046632,-3.627121,-0.164815,0.065049,-0.119691,0.593686,-0.066546,0.314177,-112.129578,-8.638311,61.236794
00733,395400000,1970,1,1,0,21,38,0,1.551219,-8.881829,-3.627402,-0.193195,0.125544,-0.127799,0.590548,-0.069002,0.319019,-112.230484,-8.733379,61.200851
00734,405400000,1970,1,1,0,21,38,0,1.478065,-8.875513,-3.609344,-0.249174,0.199137,-0.141716,0.588084,-0.069203,0.313698,-112.357826,-8.851903,61.126266
00735,415400000,1970,1,1,0,21,38,0,1.535420,-8.717556,-3.522585,-0.315158,0.279104,-0.159668,0.596149,-0.066345,0.319497,-112.516846,-8.997603,61.014389
00736,425400000,1970,1,1,0,21,38,0,1.501206,-8.578387,-3.492658,-0.350604,0.341006,-0.168705,0.590181,-0.077251,0.321510,-112.690987,-9.162028,60.871883
00737,435400000,1970,1,1,0,21,38,0,1.398998,-8.746561,-3.556937,-0.368280,0.356439,-0.171702,0.593529,-0.060687,0.319304,-112.873711,-9.331897,60.720131
00738,445400000,1970,1,1,0,21,38,0,1.510998,-9.042500,-3.610164,-0.361868,0.303495,-0.169985,0.582037,-0.077179,0.318274,-113.056976,-9.489502,60.600327
00739,455400000,1970,1,1,0,21,38,0,1.631680,-9.253428,-3.800950,-0.337212,0.213714,-0.186534,0.581803,-0.068390,0.325965,-113.234474,-9.635960,60.529163
00740,465400000,1970,1,1,0,21,38,0,1.819004,-9.322941,-4.019509,-0.325444,0.160014,-0.244563,0.584344,-0.071119,0.328722,-113.412193,-9.801001,60.500793
00741,475400000,1970,1,1,0,21,38,0,1.917775,-9.164511,-4.037086,-0.308846,0.146823,-0.312994,0.578291,-0.073370,0.335879,-113.584343,-9.999063,60.495983
00742,485400000,1970,1,1,0,21,38,0,1.876222,-8.891029,-3.954050,-0.345752,0.155287,-0.331262,0.592416,-0.073985,0.331939,-113.777718,-10.208660,60.489632
00743,495400000,1970,1,1,0,21,38,0,1.838809,-8.637257,-3.828942,-0.408179,0.170119,-0.289862,0.570816,-0.065320,0.325063,-114.003761,-10.400046,60.470409
00744,505400000,1970,1,1,0,21,38,0,1.737624,-8.588608,-3.775201,-0.416143,0.177410,-0.282906,0.593006,-0.063076,0.326921,-114.233521,-10.589561,60.445404
00745,515400000,1970,1,1,0,21,38,0,1.536265,-8.485905,-3.765979,-0.389111,0.146347,-0.255198,0.589874,-0.071256,0.329182,-114.449631,-10.757378,60.433765
00746,525400000,1970,1,1,0,21,38,0,1.602018,-8.435216,-3.823997,-0.308203,0.071810,-0.170999,0.587031,-0.068258,0.331515,-114.623062,-10.863619,60.438652
00747,535400000,1970,1,1,0,21,38,0,1.658686,-8.718870,-3.900537,-0.228567,-0.019047,-0.098846,0.581508,-0.073844,0.328474,-114.756699,-10.910536,60.474072
00748,545400000,1970,1,1,0,21,38,0,1.736349,-8.782421,-3.964649,-0.174103,-0.069995,-0.072765,0.578893,-0.073911,0.325698,-114.863060,-10.931580,60.529705
00749,555400000,1970,1,1,0,21,38,0,1.741458,-8.485192,-3.892941,-0.152260,-0.099162,-0.050351,0.595770,-0.063145,0.327151,-114.958832,-10.933816,60.595894
00750,565400000,1970,1,1,0,21,38,0,1.726430,-8.565415,-3.964036,-0.196890,-0.097151,0.015161,0.584417,-0.068324,0.328740,-115.076874,-10.902419,60.647881
00751,575400000,1970,1,1,0,21,38,0,1.885947,-8.613837,-3.932356,-0.240903,-0.078279,0.045239,0.581797,-0.062666,0.328546,-115.216820,-10.859906,60.678703
00752,585400000,1970,1,1,0,21,38,0,1.927890,-8.382103,-3.918347,-0.290841,-0.077601,0.105409,0.590018,-0.065667,0.329218,-115.382431,-10.786296,60.694904
00753,595400000,1970,1,1,0,21,38,0,1.944254,-8.455317,-3.936789,-0.341635,-0.082554,0.210182,0.590175,-0.071526,0.324091,-115.572647,-10.657234,60.687801
00754,605400000,1970,1,1,0,21,38,0,1.968606,-8.717440,-4.017073,-0.349700,-0.111477,0.242592,0.582182,-0.071590,0.318311,-115.768700,-10.504279,60.687435
00755,615400000,1970,1,1,0,21,38,0,1.898355,-8.884657,-4.090641,-0.366953,-0.148881,0.222375,0.584507,-0.082702,0.321013,-115.979019,-10.352412,60.711094
00756,625400000,1970,1,1,0,21,38,0,1.712225,-8.867178,-4.339737,-0.338545,-0.198945,0.197901,0.581441,-0.082363,0.325874,-116.178734,-10.200444,60.765114
00757,635400000,1970,1,1,0,21,38,0,1.698717,-8.693239,-4.342252,-0.342065,-0.209336,0.216564,0.587121,-0.082636,0.323788,-116.380302,-10.036046,60.818520
00758,645400000,1970,1,1,0,21,38,0,1.595957,-8.511175,-4.268794,-0.329828,-0.223378,0.243951,0.587717,-0.077452,0.316189,-116.574638,-9.853847,60.873398
00759,655400000,1970,1,1,0,21,38,0,1.431527,-8.478206,-4.265256,-0.333391,-0.221078,0.248577,0.587277,-0.088496,0.318661,-116.770294,-9.669692,60.927055
00760,665400000,1970,1,1,0,21,38,0,1.491330,-8.597921,-4.373272,-0.355494,-0.172422,0.217383,0.590264,-0.085905,0.316364,-116.975525,-9.513893,60.960232
00761,675400000,1970,1,1,0,21,38,0,1.602988,-8.613889,-4.525615,-0.370174,-0.082486,0.159663,0.590409,-0.080316,0.316401,-117.183853,-9.410892,60.963032
00762,685400000,1970,1,1,0,21,38,0,1.796274,-8.654954,-4.458513,-0.415089,0.005453,0.099119,0.590343,-0.088835,0.313801,-117.413101,-9.361792,60.936516
00763,695400000,1970,1,1,0,21,38,0,1.772774,-8.618819,-4.471030,-0.457140,0.047714,0.052377,0.587506,-0.091560,0.313553,-117.664886,-9.347774,60.899704
00764,705400000,1970,1,1,0,21,38,0,1.768456,-8.631344,-4.439469,-0.608052,0.113346,0.025324,0.584735,-0.085767,0.315904,-117.998878,-9.365183,60.836018
00765,715400000,1970,1,1,0,21,38,0,1.741061,-8.355043,-4.260442,-0.795223,0.112984,0.054123,0.581971,-0.085698,0.315674,-118.438843,-9.368393,60.765133
00766,725400000,1970,1,1,0,21,38,0,1.568058,-8.372823,-4.618515,-0.750816,0.027540,0.080199,0.576230,-0.099669,0.312578,-118.859283,-9.335541,60.730587
00767,735400000,1970,1,1,0,21,38,0,1.611870,-8.313234,-4.659383,-0.704369,0.004747,0.093988,0.578850,-0.105327,0.312772,-119.254341,-9.289685,60.702042
00768,745400000,1970,1,1,0,21,38,0,1.518254,-8.507436,-4.809231,-0.639856,0.013810,0.066993,0.592673,-0.105671,0.313922,-119.612900,-9.260032,60.676914
00769,755400000,1970,1,1,0,21,38,0,1.470129,-8.287687,-4.800001,-0.481431,-0.018665,0.041693,0.583934,-0.110784,0.318286,-119.884476,-9.233856,60.677189
00770,765400000,1970,1,1,0,21,38,0,1.571321,-8.284406,-4.794728,-0.359240,-0.051510,0.036897,0.590433,-0.103213,0.306074,-120.088890,-9.200676,60.692406
00771,775400000,1970,1,1,0,21,38,0,1.618350,-8.254040,-4.795475,-0.359082,-0.033970,0.021972,0.592824,-0.105806,0.311376,-120.292488,-9.179878,60.707603
00772,785400000,1970,1,1,0,21,38,0,1.617633,-8.268751,-4.890001,-0.339692,-0.043248,0.011417,0.581760,-0.099807,0.313038,-120.486191,-9.161569,60.728100
00773,795400000,1970,1,1,0,21,38,0,1.642344,-8.319832,-4.905375,-0.426589,-0.009710,0.014538,0.590360,-0.106008,0.306056,-120.726830,-9.151433,60.729748
00774,805400000,1970,1,1,0,21,38,0,1.597625,-8.336678,-4.957654,-0.371280,-0.026019,-0.021580,0.595516,-0.108670,0.311588,-120.938812,-9.154249,60.751991
00775,815400000,1970,1,1,0,21,38,0,1.549491,-8.205123,-4.847790,-0.384655,-0.019969,-0.054311,0.581543,-0.108191,0.312983,-121.159538,-9.174855,60.779861
00776,825400000,1970,1,1,0,21,38,0,1.527821,-8.142565,-4.803713,-0.447187,-0.025389,-0.047380,0.587156,-0.116982,0.308298,-121.416176,-9.190325,60.806759
00777,835400000,1970,1,1,0,21,38,0,1.468018,-8.221902,-4.946939,-0.501676,-0.031757,-0.044107,0.581849,-0.114185,0.305311,-121.704437,-9.202163,60.837173
00778,845400000,1970,1,1,0,21,38,0,1.520334,-8.283175,-4.995513,-0.583850,-0.030851,-0.045001,0.589999,-0.119981,0.305965,-122.039742,-9.214545,60.867908
00779,855400000,1970,1,1,0,21,38,0,1.578675,-8.266842,-5.170862,-0.581499,-0.076768,-0.049899,0.595600,-0.117324,0.306443,-122.377579,-9.215106,60.922913
00780,865400000,1970,1,1,0,21,38,0,1.598084,-8.228672,-5.230287,-0.580280,-0.093455,-0.047462,0.592908,-0.114461,0.306231,-122.715904,-9.209025,60.986057
00781,875400000,1970,1,1,0,21,38,0,1.573947,-8.059798,-5.254253,-0.483800,-0.121721,-0.047536,0.595528,-0.120119,0.306425,-123.001152,-9.193856,61.062473
00782,885400000,1970,1,1,0,21,38,0,1.528740,-7.858387,-5.285891,-0.400618,-0.118073,-0.046088,0.596124,-0.114935,0.298826,-123.238350,-9.178778,61.135910
00783,895400000,1970,1,1,0,21,38,0,1.538982,-7.815796,-5.225852,-0.433117,-0.064295,-0.012133,0.584469,-0.119843,0.305505,-123.488235,-9.164095,61.174152
00784,905400000,1970,1,1,0,21,38,0,1.537337,-7.875340,-5.230677,-0.447704,-0.034321,0.015279,0.590155,-0.125840,0.300838,-123.742767,-9.145679,61.185505
00785,915400000,1970,1,1,0,21,38,0,1.541868,-7.930534,-5.301501,-0.477239,-0.006767,0.006976,0.590522,-0.117592,0.298347,-124.012512,-9.139970,61.187965
00786,925400000,1970,1,1,0,21,38,0,1.562624,-7.952903,-5.357052,-0.444283,-0.009771,-0.031001,0.595461,-0.128638,0.303825,-124.265579,-9.151286,61.205696
00787,935400000,1970,1,1,0,21,38,0,1.540647,-7.982307,-5.405728,-0.428056,-0.002672,-0.061508,0.584921,-0.120249,0.297869,-124.510391,-9.179241,61.227947
00788,945400000,1970,1,1,0,21,38,0,1.597446,-7.997225,-5.455067,-0.438990,-0.017836,-0.069867,0.590233,-0.128770,0.298274,-124.763107,-9.206108,61.261524
00789,955400000,1970,1,1,0,21,38,0,1.647288,-8.099030,-5.625140,-0.429750,-0.037873,-0.075804,0.590378,-0.123181,0.298311,-125.012421,-9.229045,61.306118
00790,965400000,1970,1,1,0,21,38,0,1.659030,-8.024504,-5.715461,-0.367839,-0.049137,-0.071992,0.582373,-0.111796,0.297693,-125.226913,-9.246313,61.355602
00791,975400000,1970,1,1,0,21,38,0,1.669899,-7.955334,-5.655501,-0.330862,-0.044584,-0.068235,0.585138,-0.111865,0.297924,-125.419716,-9.263153,61.402061
00792,985400000,1970,1,1,0,21,38,0,1.602280,-7.889660,-5.592882,-0.321393,-0.024440,-0.064058,0.593221,-0.126180,0.295977,-125.605362,-9.284604,61.437428
00793,995400000,1970,1,1,0,21,38,0,1.755675,-7.953525,-5.377045,-0.283795,-0.001000,-0.101415,0.595540,-0.131567,0.301262,-125.769753,-9.331173,61.473553
00794,5400000,1970,1,1,0,21,39,0,1.483513,-7.710268,-5.570292,-0.226675,0.031444,-0.127953,0.590384,-0.128905,0.295729,-125.900452,-9.400853,61.502670
00795,15400000,1970,1,1,0,21,39,0,1.445255,-7.653730,-5.513848,-0.230375,0.025776,-0.108304,0.590155,-0.125840,0.300838,-126.032677,-9.459455,61.529133
