// General information: 
//  MT Manager version: 2019.0.1 
//  XDA version: 2019.0.1 build 2740 rev 84096 built on 2019-01-30
// Device information: 
//  DeviceId: 077002EC
//  ProductCode: MTi-G-700-2A5G4
//  Firmware Version: 1.4.1
//  Hardware Version: 2.0.0
// Device settings: 
//  Filter Profile: GeneralMag(3.17)
//  Option Flags: Orientation Smoother Disabled, AHS Disabled, ICC Disabled
//  GNSS Platform: Portable
// Coordinate system: ENU
PacketCounter,UTC_Nano,UTC_Year,UTC_Month,UTC_Day,UTC_Hour,UTC_Minute,UTC_Second,UTC_Valid,Acc_X,Acc_Y,Acc_Z,Gyr_X,Gyr_Y,Gyr_Z,Mag_X,Mag_Y,Mag_Z,Roll,Pitch,Yaw
00001,365400000,1970,1,1,0,17,35,0,-0.032652,0.002135,9.812614,-0.006212,0.002767,-0.000165,0.553043,0.331705,0.100250,-0.024434,0.171547,61.698925
00002,375400000,1970,1,1,0,17,35,0,-0.030907,0.001425,9.804214,-0.009672,0.003470,0.002279,0.555288,0.323528,0.105513,-0.026024,0.171975,61.698753
00003,385400000,1970,1,1,0,17,35,0,-0.019088,-0.017579,9.807829,-0.003927,0.001484,-0.000130,0.549690,0.320873,0.105035,-0.024324,0.171265,61.698341
00004,395400000,1970,1,1,0,17,35,0,-0.025351,-0.010930,9.789353,-0.005820,0.002986,0.001692,0.555144,0.317943,0.105477,-0.023707,0.171417,61.698895
00005,405400000,1970,1,1,0,17,35,0,-0.032511,-0.007273,9.806453,-0.009571,0.002983,0.000547,0.555661,0.326051,0.100444,-0.025239,0.171567,61.699482
00006,415400000,1970,1,1,0,17,35,0,-0.021553,-0.012319,9.860115,-0.006654,0.005573,0.001660,0.560880,0.331904,0.108571,-0.025101,0.173201,61.699703
00007,425400000,1970,1,1,0,17,35,0,-0.027269,-0.008865,9.807473,-0.005384,0.002222,-0.000523,0.555210,0.326456,0.108075,-0.024236,0.172914,61.698322
00008,435400000,1970,1,1,0,17,35,0,-0.017678,-0.020617,9.790771,-0.009465,0.003739,0.000651,0.552748,0.326255,0.102758,-0.025708,0.173497,61.697899
00009,445400000,1970,1,1,0,17,35,0,-0.012451,-0.032620,9.794763,-0.007205,0.001530,0.001584,0.560880,0.331904,0.108571,-0.025882,0.172813,61.697845
00010,455400000,1970,1,1,0,17,35,0,-0.024809,-0.026201,9.784034,-0.007929,0.003321,0.003182,0.563727,0.323187,0.103659,-0.026470,0.173154,61.698631
00011,465400000,1970,1,1,0,17,35,0,-0.020009,-0.018340,9.831664,-0.004334,0.002837,0.003564,0.557967,0.332108,0.110885,-0.024997,0.173219,61.700932
00012,475400000,1970,1,1,0,17,35,0,-0.037855,-0.008741,9.845296,-0.004452,0.004544,0.001112,0.550130,0.331909,0.102564,-0.023598,0.174263,61.700222
00013,485400000,1970,1,1,0,17,35,0,-0.033523,-0.016062,9.801463,-0.008158,0.002528,0.000873,0.558274,0.326117,0.103217,-0.024320,0.174151,61.698849
00014,495400000,1970,1,1,0,17,35,0,-0.041744,-0.005813,9.774413,-0.005957,0.001638,-0.000691,0.563721,0.328907,0.106239,-0.023788,0.173530,61.698044
00015,505400000,1970,1,1,0,17,35,0,-0.030642,0.004949,9.787251,-0.006527,0.003538,-0.000062,0.569403,0.322914,0.101575,-0.023579,0.173997,61.697605
00016,515400000,1970,1,1,0,17,35,0,-0.027800,-0.002697,9.839498,-0.007426,0.001864,0.004256,0.560597,0.315012,0.105918,-0.023877,0.173506,61.700848
00017,525400000,1970,1,1,0,17,35,0,-0.021654,-0.020664,9.824763,-0.007540,0.003204,0.000069,0.552525,0.323597,0.105283,-0.024246,0.173781,61.701916
00018,535400000,1970,1,1,0,17,35,0,-0.046922,-0.003204,9.802457,-0.007083,0.004458,0.002075,0.566779,0.334289,0.103962,-0.024353,0.174774,61.702209
00019,545400000,1970,1,1,0,17,35,0,-0.044635,-0.010995,9.792173,-0.003367,0.002718,0.001105,0.552904,0.320399,0.097634,-0.022329,0.174771,61.701683
00020,555400000,1970,1,1,0,17,35,0,-0.034986,-0.013419,9.775815,-0.006810,0.006529,0.001259,0.560964,0.323255,0.103429,-0.022281,0.176951,61.702019
00021,565400000,1970,1,1,0,17,35,0,-0.042530,-0.016254,9.810834,-0.005779,0.003726,-0.001003,0.558346,0.328910,0.103236,-0.021646,0.177526,61.701267
00022,575400000,1970,1,1,0,17,35,0,-0.021174,-0.025302,9.835213,-0.008625,0.002755,0.002015,0.558045,0.329180,0.108323,-0.022634,0.177543,61.701260
00023,585400000,1970,1,1,0,17,35,0,-0.021637,-0.013832,9.814557,-0.006800,0.003156,0.000711,0.555583,0.328979,0.103006,-0.022578,0.177791,61.700508
00024,595400000,1970,1,1,0,17,35,0,-0.032130,0.006068,9.792809,-0.008785,0.005369,0.002494,0.555138,0.323663,0.108057,-0.023657,0.179304,61.700672
00025,605400000,1970,1,1,0,17,35,0,-0.035230,-0.023768,9.785909,-0.006219,0.005417,-0.002218,0.561115,0.323120,0.100885,-0.023275,0.180848,61.698826
00026,615400000,1970,1,1,0,17,35,0,-0.033165,-0.015689,9.799212,-0.008035,0.001298,0.002008,0.555288,0.323528,0.105513,-0.023927,0.180030,61.699902
00027,625400000,1970,1,1,0,17,35,0,-0.036877,0.008473,9.821808,-0.006327,0.001499,0.002644,0.566123,0.314874,0.106378,-0.023597,0.179330,61.700783
00028,635400000,1970,1,1,0,17,35,0,-0.033012,-0.012774,9.844891,-0.007534,0.004877,0.001087,0.555583,0.328979,0.103006,-0.023963,0.180563,61.702633
00029,645400000,1970,1,1,0,17,35,0,-0.033942,-0.009819,9.809163,-0.007407,0.002993,0.001853,0.561187,0.325913,0.100904,-0.024254,0.180719,61.702194
00030,655400000,1970,1,1,0,17,35,0,-0.029439,-0.023555,9.780886,-0.008237,0.004058,0.001879,0.560880,0.331904,0.108571,-0.025021,0.181483,61.702633
00031,665400000,1970,1,1,0,17,35,0,-0.021449,-0.023035,9.800795,-0.006758,-0.000635,0.000615,0.569554,0.322779,0.099031,-0.024943,0.179559,61.701565
00032,675400000,1970,1,1,0,17,35,0,-0.015645,-0.028344,9.811796,-0.006205,-0.000837,0.000098,0.558791,0.334226,0.098184,-0.024550,0.177517,61.702038
00033,685400000,1970,1,1,0,17,35,0,-0.034790,-0.029411,9.825068,-0.007585,0.004252,0.001297,0.558123,0.326252,0.105761,-0.024944,0.178393,61.700878
00034,695400000,1970,1,1,0,17,35,0,-0.030924,-0.026798,9.819185,-0.007600,0.002662,0.001075,0.550136,0.326189,0.099984,-0.025348,0.178358,61.700684
00035,705400000,1970,1,1,0,17,35,0,-0.031322,-0.009039,9.796269,-0.006715,0.002466,0.000025,0.560591,0.320733,0.108498,-0.025249,0.178209,61.699341
00036,715400000,1970,1,1,0,17,35,0,-0.027934,-0.015837,9.807589,-0.007138,0.006789,0.001353,0.552520,0.329318,0.107863,-0.025388,0.180538,61.700199
00037,725400000,1970,1,1,0,17,35,0,-0.028062,-0.002369,9.809834,-0.007325,0.002185,0.001407,0.544682,0.329119,0.099542,-0.025632,0.180230,61.699429
00038,735400000,1970,1,1,0,17,35,0,-0.032553,0.006562,9.811662,-0.004884,0.003642,0.004029,0.552898,0.326120,0.100214,-0.024474,0.180756,61.699688
00039,745400000,1970,1,1,0,17,35,0,-0.033237,-0.014076,9.800633,-0.007809,0.003535,0.000367,0.563794,0.331700,0.106257,-0.024997,0.181220,61.698929
00040,755400000,1970,1,1,0,17,35,0,-0.032453,0.000823,9.802653,-0.005286,0.002037,0.000369,0.563577,0.323322,0.106203,-0.024075,0.180826,61.698280
00041,765400000,1970,1,1,0,17,35,0,-0.036221,-0.017113,9.807837,-0.005973,0.002206,0.000481,0.555739,0.323123,0.097882,-0.023546,0.180529,61.698696
00042,775400000,1970,1,1,0,17,35,0,-0.033264,-0.016971,9.796011,-0.008463,0.002077,0.001333,0.558412,0.337423,0.105834,-0.024442,0.180158,61.699024
00043,785400000,1970,1,1,0,17,35,0,-0.043722,0.003914,9.816139,-0.008325,0.005561,0.001975,0.561109,0.328841,0.103465,-0.025260,0.181785,61.698082
00044,795400000,1970,1,1,0,17,35,0,-0.033993,-0.015084,9.814742,-0.007531,0.001914,-0.001703,0.555505,0.331907,0.105568,-0.025627,0.181320,61.696396
00045,805400000,1970,1,1,0,17,35,0,-0.032153,-0.033826,9.786667,-0.005734,0.003625,0.002016,0.552898,0.326120,0.100214,-0.024958,0.181836,61.696110
00046,815400000,1970,1,1,0,17,35,0,-0.022216,-0.028501,9.799251,-0.007054,0.002332,-0.000219,0.563571,0.329042,0.108783,-0.025050,0.181610,61.695126
00047,825400000,1970,1,1,0,17,35,0,-0.042265,-0.003330,9.816635,-0.005836,0.000538,0.001772,0.566484,0.328839,0.106469,-0.024441,0.180356,61.695698
00048,835400000,1970,1,1,0,17,35,0,-0.035089,-0.001279,9.829433,-0.006941,0.004626,-0.000224,0.555511,0.326186,0.102987,-0.024469,0.181446,61.695316
00049,845400000,1970,1,1,0,17,35,0,-0.034074,-0.013583,9.815451,-0.007379,0.003136,0.001773,0.561181,0.331634,0.103484,-0.024744,0.181682,61.695625
00050,855400000,1970,1,1,0,17,35,0,-0.028408,0.001314,9.814811,-0.007414,0.002562,0.002280,0.563505,0.320529,0.106184,-0.025037,0.181590,61.695885
00051,865400000,1970,1,1,0,17,35,0,-0.026998,-0.007003,9.799653,-0.006126,0.003038,0.002505,0.561025,0.337490,0.108607,-0.024589,0.181770,61.697979
00052,875400000,1970,1,1,0,17,35,0,-0.039926,-0.005325,9.810030,-0.005981,0.001157,0.002223,0.561037,0.326048,0.103447,-0.024059,0.180873,61.697330
00053,885400000,1970,1,1,0,17,35,0,-0.032107,-0.012116,9.821891,-0.006154,0.004244,0.003451,0.560958,0.328976,0.106009,-0.023628,0.181744,61.699032
00054,895400000,1970,1,1,0,17,35,0,-0.035076,-0.002472,9.830855,-0.005469,0.006318,0.003633,0.566707,0.331496,0.103943,-0.022803,0.183803,61.700378
00055,905400000,1970,1,1,0,17,35,0,-0.023665,-0.028573,9.797452,-0.006258,0.004327,-0.000552,0.558352,0.323189,0.100655,-0.022439,0.184720,61.699436
00056,915400000,1970,1,1,0,17,35,0,-0.028565,-0.024646,9.780897,-0.005583,0.002342,0.003479,0.569030,0.320391,0.106644,-0.021680,0.184502,61.701237
00057,925400000,1970,1,1,0,17,35,0,-0.021381,-0.026903,9.799740,-0.003847,0.001261,0.002014,0.563878,0.323052,0.101115,-0.019928,0.183664,61.703281
00058,935400000,1970,1,1,0,17,35,0,-0.030119,-0.015367,9.831174,-0.004728,0.004717,-0.000532,0.564022,0.328637,0.101152,-0.018688,0.184805,61.702965
00059,945400000,1970,1,1,0,17,35,0,-0.025179,-0.018885,9.823051,-0.007539,0.001590,0.002130,0.558418,0.331703,0.103254,-0.019053,0.184156,61.703430
00060,955400000,1970,1,1,0,17,35,0,-0.030215,-0.008398,9.799723,-0.010372,0.003527,0.002281,0.558118,0.331973,0.108341,-0.021041,0.184616,61.703220
00061,965400000,1970,1,1,0,17,35,0,-0.025602,-0.008425,9.795160,-0.008871,0.001590,0.001605,0.555734,0.328844,0.100462,-0.022171,0.183965,61.702644
00062,975400000,1970,1,1,0,17,35,0,-0.018609,-0.008376,9.804628,-0.007180,0.001921,0.000001,0.555355,0.332042,0.108111,-0.022333,0.183504,61.701466
00063,985400000,1970,1,1,0,17,35,0,-0.029587,-0.010276,9.817429,-0.005086,0.001571,0.000592,0.558268,0.331838,0.105797,-0.021295,0.182842,61.700260
00064,995400000,1970,1,1,0,17,35,0,-0.025816,0.009607,9.825223,-0.006992,0.002968,0.001664,0.563763,0.325934,0.103663,-0.021345,0.182983,61.700008
00065,5400000,1970,1,1,0,17,36,0,-0.058098,0.007674,9.798443,-0.007860,0.003197,0.001273,0.555627,0.326005,0.100430,-0.021895,0.183254,61.700588
00066,15400000,1970,1,1,0,17,36,0,-0.039971,0.003438,9.787660,-0.007965,0.001212,-0.000083,0.557932,0.332061,0.110869,-0.022508,0.182388,61.699833
00067,25400000,1970,1,1,0,17,36,0,-0.020332,-0.029202,9.804799,-0.009305,0.001148,-0.001111,0.557788,0.326476,0.110833,-0.023888,0.181484,61.697906
00068,35400000,1970,1,1,0,17,36,0,-0.034264,-0.009001,9.808983,-0.004480,-0.000016,0.002164,0.563763,0.325934,0.103663,-0.022499,0.179914,61.698566
00069,45400000,1970,1,1,0,17,36,0,-0.029909,-0.025393,9.817841,-0.006095,0.002284,0.001933,0.561368,0.334244,0.100944,-0.022036,0.179661,61.699551
00070,55400000,1970,1,1,0,17,36,0,-0.019480,-0.027410,9.817745,-0.005697,0.004729,0.001444,0.553154,0.337243,0.100273,-0.021347,0.180809,61.699059
00071,65400000,1970,1,1,0,17,36,0,-0.028678,-0.030402,9.792587,-0.008730,0.001162,-0.000051,0.560556,0.320688,0.108483,-0.022397,0.179912,61.696922
00072,75400000,1970,1,1,0,17,36,0,-0.025109,-0.022608,9.794532,-0.006130,0.002486,-0.001069,0.560628,0.323480,0.108501,-0.021961,0.179775,61.696709
00073,85400000,1970,1,1,0,17,36,0,-0.034584,-0.012934,9.812071,-0.009526,0.001157,0.002392,0.555627,0.326005,0.100430,-0.023462,0.178878,61.698055
00074,95400000,1970,1,1,0,17,36,0,-0.023194,-0.019356,9.814251,-0.005687,0.003102,0.000504,0.555705,0.323078,0.097869,-0.022767,0.179095,61.697624
00075,105400000,1970,1,1,0,17,36,0,-0.031344,-0.004733,9.817925,-0.008916,0.004007,0.002492,0.560929,0.323211,0.103415,-0.023920,0.179829,61.698685
00076,115400000,1970,1,1,0,17,36,0,-0.019843,0.004960,9.802299,-0.006000,0.001946,0.000748,0.558161,0.328999,0.105764,-0.023403,0.179383,61.699020
00077,125400000,1970,1,1,0,17,36,0,-0.010451,-0.018293,9.790811,-0.007759,0.002393,0.000672,0.557866,0.323549,0.108271,-0.023897,0.179192,61.698418
00078,135400000,1970,1,1,0,17,36,0,-0.024219,-0.013650,9.802247,-0.006847,0.003124,0.001257,0.563613,0.326069,0.106206,-0.023869,0.179419,61.698788
00079,145400000,1970,1,1,0,17,36,0,-0.029129,-0.021315,9.824368,-0.007034,0.001309,0.001257,0.558089,0.326207,0.105746,-0.023943,0.178608,61.699203
00080,155400000,1970,1,1,0,17,36,0,-0.042982,-0.012444,9.806262,-0.008221,0.001567,0.000477,0.552715,0.326209,0.102743,-0.024701,0.177944,61.698746
00081,165400000,1970,1,1,0,17,36,0,-0.039253,-0.019759,9.805245,-0.007083,0.003015,0.000242,0.560917,0.334649,0.108574,-0.024807,0.178109,61.697754
00082,175400000,1970,1,1,0,17,36,0,-0.030448,-0.020159,9.785442,-0.006842,0.001142,0.001696,0.560851,0.326138,0.105976,-0.024773,0.177201,61.697224
00083,185400000,1970,1,1,0,17,36,0,-0.025408,-0.018781,9.807452,-0.008138,0.001519,0.003293,0.563914,0.325799,0.101119,-0.025479,0.176511,61.698669
00084,195400000,1970,1,1,0,17,36,0,-0.031580,-0.013357,9.816740,-0.005260,0.001236,0.002299,0.558311,0.328864,0.103221,-0.024536,0.175658,61.699783
00085,205400000,1970,1,1,0,17,36,0,-0.026009,-0.024156,9.813380,-0.006788,0.001746,0.000220,0.558022,0.317695,0.103148,-0.024474,0.175096,61.698902
00086,215400000,1970,1,1,0,17,36,0,-0.040644,0.003427,9.798681,-0.006626,0.000007,-0.000111,0.555549,0.328933,0.102991,-0.024319,0.173537,61.699184
00087,225400000,1970,1,1,0,17,36,0,-0.037686,0.000823,9.814034,-0.007503,0.002324,0.001517,0.546895,0.320897,0.104790,-0.024665,0.173306,61.698780
00088,235400000,1970,1,1,0,17,36,0,-0.029375,-0.012883,9.815344,-0.006086,0.002566,0.000353,0.560622,0.329200,0.111081,-0.024198,0.173213,61.698109
00089,245400000,1970,1,1,0,17,36,0,-0.024990,-0.009448,9.800335,-0.005830,0.002403,0.002980,0.558395,0.320217,0.098080,-0.023581,0.173028,61.698925
00090,255400000,1970,1,1,0,17,36,0,-0.020953,-0.013786,9.802888,-0.007733,0.004764,0.001186,0.555248,0.329203,0.108078,-0.024056,0.174195,61.699635
00091,265400000,1970,1,1,0,17,36,0,-0.017317,-0.021571,9.817297,-0.008309,0.004660,0.000032,0.555693,0.334517,0.103028,-0.024865,0.175302,61.698307
00092,275400000,1970,1,1,0,17,36,0,-0.045379,-0.022415,9.804567,-0.009482,0.001542,0.000136,0.550097,0.331862,0.102550,-0.026346,0.174623,61.696491
00093,285400000,1970,1,1,0,17,36,0,-0.027397,-0.022898,9.812650,-0.005378,0.000351,0.000854,0.569216,0.323004,0.104104,-0.025475,0.173261,61.695107
00094,295400000,1970,1,1,0,17,36,0,-0.024200,-0.021947,9.816846,-0.006810,0.004345,-0.000141,0.547262,0.329139,0.102302,-0.025424,0.174188,61.695732
00095,305400000,1970,1,1,0,17,36,0,-0.019501,-0.025305,9.808725,-0.004497,0.002724,0.002270,0.572417,0.333969,0.101864,-0.024045,0.174187,61.695255
00096,315400000,1970,1,1,0,17,36,0,-0.014420,-0.025394,9.803571,-0.007085,0.001216,0.000258,0.558311,0.328864,0.103221,-0.024152,0.173322,61.694859
00097,325400000,1970,1,1,0,17,36,0,-0.018932,-0.013077,9.795200,-0.005658,0.002423,0.001886,0.569288,0.325796,0.104122,-0.023441,0.173150,61.695057
00098,335400000,1970,1,1,0,17,36,0,-0.043373,0.005968,9.812885,-0.006858,0.000736,-0.000197,0.558305,0.334583,0.105801,-0.023418,0.172008,61.695290
00099,345400000,1970,1,1,0,17,36,0,-0.041160,-0.008754,9.814112,-0.008685,0.002494,0.002347,0.558016,0.323414,0.105728,-0.024439,0.171874,61.694920
00100,355400000,1970,1,1,0,17,36,0,-0.044645,0.002565,9.807296,-0.006352,0.003116,0.004852,0.555477,0.326140,0.102973,-0.024118,0.172097,61.697536
00101,365400000,1970,1,1,0,17,36,0,-0.041353,0.001945,9.815293,-0.009367,0.005249,0.002342,0.560923,0.328930,0.105994,-0.025531,0.173542,61.698105
00102,375400000,1970,1,1,0,17,36,0,-0.023513,-0.000842,9.792994,-0.008408,0.003075,0.002593,0.563836,0.328726,0.103681,-0.026390,0.173742,61.698868
00103,385400000,1970,1,1,0,17,36,0,-0.020960,-0.025281,9.817722,-0.005857,0.004240,0.001778,0.568993,0.320347,0.106629,-0.025792,0.174611,61.699413
00104,395400000,1970,1,1,0,17,36,0,-0.027982,-0.026309,9.805412,-0.007213,0.004517,0.001717,0.563914,0.325799,0.101119,-0.025970,0.175637,61.701443
00105,405400000,1970,1,1,0,17,36,0,-0.021986,-0.039013,9.811666,-0.006519,0.001000,0.003213,0.560995,0.331722,0.106012,-0.025746,0.174649,61.702999
00106,415400000,1970,1,1,0,17,36,0,-0.023048,-0.037160,9.807384,-0.006903,0.004047,0.001862,0.558233,0.331791,0.105783,-0.025746,0.175406,61.702740
00107,425400000,1970,1,1,0,17,36,0,-0.038056,-0.008766,9.806800,-0.006549,0.000050,0.001048,0.561152,0.325868,0.100890,-0.025547,0.173871,61.701832
00108,435400000,1970,1,1,0,17,36,0,-0.024881,-0.005047,9.795347,-0.007368,0.000957,0.001604,0.561001,0.326003,0.103433,-0.025814,0.172858,61.702339
00109,445400000,1970,1,1,0,17,36,0,-0.019048,-0.007386,9.817734,-0.008487,0.001711,0.001652,0.549730,0.323621,0.105038,-0.026722,0.172274,61.702824
00110,455400000,1970,1,1,0,17,36,0,-0.027676,-0.000286,9.816900,-0.009613,0.002052,-0.000334,0.550025,0.329070,0.102532,-0.028278,0.171887,61.701614
00111,465400000,1970,1,1,0,17,36,0,-0.036879,-0.004813,9.820102,-0.008262,0.004119,0.003362,0.555332,0.320556,0.102937,-0.029057,0.172685,61.701874
00112,475400000,1970,1,1,0,17,36,0,-0.038476,0.004774,9.803583,-0.007160,0.002451,-0.002880,0.549946,0.331997,0.105093,-0.029212,0.172528,61.700146
00113,485400000,1970,1,1,0,17,36,0,-0.035446,-0.016209,9.804826,-0.004394,0.002219,0.000601,0.563763,0.325934,0.103663,-0.027775,0.172236,61.698460
00114,495400000,1970,1,1,0,17,36,0,-0.036244,-0.015545,9.816793,-0.006626,0.003958,0.003251,0.547413,0.329004,0.099759,-0.027614,0.172943,61.700214
00115,505400000,1970,1,1,0,17,36,0,-0.027065,-0.023827,9.799130,-0.004352,0.001825,0.000901,0.560706,0.320553,0.105940,-0.026154,0.172426,61.698956
00116,515400000,1970,1,1,0,17,36,0,-0.025168,-0.025845,9.798798,-0.005110,0.001034,0.000331,0.569733,0.331111,0.099072,-0.025126,0.171457,61.699608
00117,525400000,1970,1,1,0,17,36,0,-0.015569,-0.036262,9.800483,-0.005620,0.002015,0.000121,0.561001,0.326003,0.103433,-0.024393,0.171049,61.699299
00118,535400000,1970,1,1,0,17,36,0,-0.027758,-0.016050,9.802444,-0.007416,0.004621,0.001795,0.563763,0.325934,0.103663,-0.024688,0.172135,61.699947
00119,545400000,1970,1,1,0,17,36,0,-0.043906,-0.012006,9.821072,-0.006641,-0.001266,0.001026,0.561519,0.334109,0.098401,-0.024537,0.169848,61.700344
00120,555400000,1970,1,1,0,17,36,0,-0.042177,0.003056,9.809819,-0.008817,0.003692,0.004165,0.563535,0.328996,0.108767,-0.025630,0.170403,61.701191
00121,565400000,1970,1,1,0,17,36,0,-0.025717,0.004922,9.802803,-0.005949,0.001495,0.002706,0.555477,0.326140,0.102973,-0.025080,0.169700,61.702126
00122,575400000,1970,1,1,0,17,36,0,-0.025195,-0.006363,9.808040,-0.008809,0.000306,0.001005,0.563830,0.334446,0.106260,-0.026171,0.168312,61.701847
00123,585400000,1970,1,1,0,17,36,0,-0.029926,-0.000059,9.793382,-0.004753,0.004182,0.001633,0.549874,0.329205,0.105075,-0.024938,0.169146,61.701416
00124,595400000,1970,1,1,0,17,36,0,-0.044336,0.005561,9.818567,-0.008586,0.002965,0.002202,0.560995,0.331722,0.106012,-0.025901,0.169281,61.700985
00125,605400000,1970,1,1,0,17,36,0,-0.031118,-0.010288,9.813418,-0.007915,0.002975,0.001935,0.558462,0.328729,0.100678,-0.026481,0.169424,61.701046
00126,615400000,1970,1,1,0,17,36,0,-0.040746,-0.026127,9.820778,-0.006678,0.003339,0.000349,0.555032,0.320826,0.108023,-0.026353,0.169775,61.700420
00127,625400000,1970,1,1,0,17,36,0,-0.038737,-0.024138,9.809531,-0.008205,0.001850,0.000304,0.561140,0.337307,0.106049,-0.027101,0.169274,61.700645
00128,635400000,1970,1,1,0,17,36,0,-0.030478,-0.013806,9.811531,-0.006403,0.000846,-0.001603,0.552636,0.329136,0.105305,-0.026821,0.168196,61.697823
00129,645400000,1970,1,1,0,17,36,0,-0.018042,-0.021899,9.822622,-0.007474,0.001750,0.000505,0.558155,0.334718,0.108344,-0.027152,0.167636,61.696827
00130,655400000,1970,1,1,0,17,36,0,-0.031587,-0.015239,9.818873,-0.007994,0.003051,0.001012,0.552937,0.328866,0.100218,-0.027778,0.167821,61.695774
00131,665400000,1970,1,1,0,17,36,0,-0.039147,-0.010986,9.800026,-0.006538,0.002408,0.001353,0.555844,0.334382,0.100485,-0.027568,0.167637,61.695454
00132,675400000,1970,1,1,0,17,36,0,-0.033183,-0.015128,9.808414,-0.009238,0.002661,0.002894,0.555326,0.326275,0.105516,-0.028904,0.167600,61.695473
00133,685400000,1970,1,1,0,17,36,0,-0.027804,-0.007380,9.818690,-0.006072,0.002344,0.001420,0.561079,0.323076,0.100871,-0.028427,0.167383,61.695858
00134,695400000,1970,1,1,0,17,36,0,-0.032579,-0.003326,9.808770,-0.004796,0.006858,0.000828,0.560556,0.320688,0.108483,-0.027221,0.169750,61.696774
00135,705400000,1970,1,1,0,17,36,0,-0.037549,0.011510,9.807976,-0.005716,0.001946,-0.000598,0.558011,0.329134,0.108308,-0.026541,0.169304,61.697105
00136,715400000,1970,1,1,0,17,36,0,-0.023145,-0.003207,9.813879,-0.006450,0.002810,0.001824,0.555399,0.329068,0.105535,-0.026281,0.169353,61.697277
00137,725400000,1970,1,1,0,17,36,0,-0.017035,-0.025754,9.796302,-0.006445,0.002134,0.000139,0.560995,0.331722,0.106012,-0.026019,0.169012,61.696293
00138,735400000,1970,1,1,0,17,36,0,-0.027707,-0.015572,9.809441,-0.008839,0.005169,0.000029,0.558305,0.334583,0.105801,-0.027131,0.170411,61.695343
00139,745400000,1970,1,1,0,17,36,0,-0.028600,-0.007669,9.822943,-0.003343,0.003878,0.003555,0.549724,0.329340,0.107618,-0.025087,0.171071,61.695789
00140,755400000,1970,1,1,0,17,36,0,-0.021413,-0.019672,9.817119,-0.007659,0.000376,-0.002063,0.544049,0.329613,0.109702,-0.025525,0.169725,61.693165
00141,765400000,1970,1,1,0,17,36,0,-0.018313,-0.012449,9.803987,-0.009522,0.003232,0.001983,0.566369,0.331720,0.109015,-0.027027,0.170015,61.692387
00142,775400000,1970,1,1,0,17,36,0,-0.022477,-0.015698,9.800727,-0.004651,0.002035,0.000995,0.558161,0.328999,0.105764,-0.025736,0.169619,61.692680
00143,785400000,1970,1,1,0,17,36,0,-0.023045,-0.013212,9.804634,-0.005761,0.002661,0.003571,0.558317,0.323144,0.100642,-0.025076,0.169581,61.694130
00144,795400000,1970,1,1,0,17,36,0,-0.032032,-0.009764,9.813997,-0.007507,0.002387,0.000421,0.555555,0.323213,0.100412,-0.025423,0.169387,61.694660
00145,805400000,1970,1,1,0,17,36,0,-0.049716,-0.014023,9.804383,-0.007699,-0.000645,0.001866,0.563836,0.328726,0.103681,-0.025877,0.167456,61.695694
00146,815400000,1970,1,1,0,17,36,0,-0.038617,-0.005008,9.819245,-0.008896,0.003478,0.002089,0.555766,0.337309,0.103046,-0.027016,0.167886,61.696648
00147,825400000,1970,1,1,0,17,36,0,-0.028530,-0.012842,9.805391,-0.009237,0.003557,-0.000396,0.557938,0.326341,0.108289,-0.028355,0.168362,61.694183
00148,835400000,1970,1,1,0,17,36,0,-0.026828,0.000268,9.805998,-0.007079,0.002748,0.001262,0.561001,0.326003,0.103433,-0.028453,0.168374,61.694626
00149,845400000,1970,1,1,0,17,36,0,-0.026480,-0.010288,9.816923,-0.004569,0.002123,0.000775,0.563986,0.328591,0.101138,-0.027115,0.168029,61.695049
00150,855400000,1970,1,1,0,17,36,0,-0.036659,-0.016543,9.801962,-0.006143,0.003423,0.002066,0.566297,0.328927,0.108997,-0.026675,0.168430,61.696041
00151,865400000,1970,1,1,0,17,36,0,-0.052262,-0.015890,9.813018,-0.008683,0.003869,0.001036,0.564070,0.319945,0.095997,-0.027694,0.169084,61.696552
00152,875400000,1970,1,1,0,17,36,0,-0.041312,-0.022466,9.808658,-0.007407,0.002034,-0.000094,0.555543,0.334652,0.105571,-0.027982,0.168686,61.697491
00153,885400000,1970,1,1,0,17,36,0,-0.019488,-0.020430,9.803144,-0.006584,0.000901,-0.000009,0.560845,0.331857,0.108556,-0.027799,0.167640,61.695446
00154,895400000,1970,1,1,0,17,36,0,-0.027225,-0.017494,9.807430,-0.006719,0.002321,0.002138,0.558311,0.328864,0.103221,-0.027692,0.167409,61.695602
00155,905400000,1970,1,1,0,17,36,0,-0.026722,-0.012106,9.806724,-0.006954,0.000929,0.001074,0.566748,0.328522,0.101367,-0.027721,0.166380,61.695412
00156,915400000,1970,1,1,0,17,36,0,-0.028906,0.000401,9.821155,-0.009615,0.003874,0.003197,0.566086,0.314831,0.106363,-0.029272,0.167038,61.697155
00157,925400000,1970,1,1,0,17,36,0,-0.041580,-0.018090,9.816723,-0.008352,0.000976,0.001890,0.549802,0.326413,0.105057,-0.030098,0.166035,61.700092
00158,935400000,1970,1,1,0,17,36,0,-0.050992,-0.000824,9.802938,-0.009571,0.001515,-0.000038,0.555399,0.329068,0.105535,-0.031626,0.165341,61.698601
00159,945400000,1970,1,1,0,17,36,0,-0.033669,-0.003988,9.803538,-0.008238,0.004091,-0.000560,0.560773,0.329065,0.108537,-0.032394,0.166123,61.696968
00160,955400000,1970,1,1,0,17,36,0,-0.024109,-0.015084,9.806757,-0.007458,0.002733,0.000278,0.561290,0.337172,0.103506,-0.032713,0.166127,61.696327
00161,965400000,1970,1,1,0,17,36,0,-0.021133,-0.015719,9.803120,-0.006825,0.001643,-0.000386,0.555621,0.331725,0.103010,-0.032670,0.165505,61.694168
00162,975400000,1970,1,1,0,17,36,0,-0.014937,-0.014172,9.815313,-0.007065,0.004112,0.000329,0.555254,0.323483,0.105498,-0.032765,0.166297,61.692844
00163,985400000,1970,1,1,0,17,36,0,-0.028581,-0.020902,9.807890,-0.008471,0.004683,0.000563,0.549946,0.331997,0.105093,-0.033665,0.167420,61.692886
00164,995400000,1970,1,1,0,17,36,0,-0.036436,-0.013586,9.813593,-0.007410,0.003786,0.001763,0.558239,0.326072,0.103203,-0.033956,0.168027,61.691914
00165,5400000,1970,1,1,0,17,37,0,-0.030181,-0.025536,9.813917,-0.007134,0.002839,0.000892,0.558161,0.328999,0.105764,-0.034086,0.168092,61.692093
00166,15400000,1970,1,1,0,17,37,0,-0.027167,-0.017020,9.810396,-0.005382,0.003636,0.003617,0.563469,0.320484,0.106169,-0.033207,0.168613,61.693378
00167,25400000,1970,1,1,0,17,37,0,-0.013257,-0.008248,9.801561,-0.006946,0.003684,0.001982,0.552709,0.331929,0.105323,-0.033227,0.169161,61.695412
00168,35400000,1970,1,1,0,17,37,0,-0.028706,-0.006415,9.810369,-0.007746,0.003905,0.002326,0.558456,0.334448,0.103258,-0.033709,0.169836,61.694908
00169,45400000,1970,1,1,0,17,37,0,-0.032467,-0.007723,9.799047,-0.006811,0.004256,0.001100,0.561073,0.328795,0.103451,-0.033656,0.170714,61.693932
00170,55400000,1970,1,1,0,17,37,0,-0.022631,-0.001622,9.812337,-0.006727,-0.000541,0.000479,0.558173,0.317560,0.100605,-0.033554,0.168842,61.693699
00171,65400000,1970,1,1,0,17,37,0,-0.030746,-0.014045,9.812356,-0.007756,0.003101,-0.000108,0.563691,0.323142,0.103644,-0.034044,0.169057,61.694553
00172,75400000,1970,1,1,0,17,37,0,-0.035660,0.005966,9.814296,-0.010287,0.003222,-0.000679,0.561296,0.331452,0.100926,-0.035983,0.169340,61.694592
00173,85400000,1970,1,1,0,17,37,0,-0.032038,-0.016705,9.798108,-0.005991,0.001902,0.002618,0.561068,0.334514,0.106031,-0.035456,0.168868,61.695011
00174,95400000,1970,1,1,0,17,37,0,-0.024339,-0.017105,9.800708,-0.007153,0.003304,0.002314,0.560923,0.328930,0.105994,-0.035596,0.169198,61.694778
00175,105400000,1970,1,1,0,17,37,0,-0.033231,-0.013209,9.811492,-0.004322,0.002312,0.001011,0.550025,0.329070,0.102532,-0.034115,0.168962,61.694675
00176,115400000,1970,1,1,0,17,37,0,-0.036255,-0.010692,9.812646,-0.007869,0.003838,0.003483,0.558161,0.328999,0.105764,-0.034663,0.169599,61.695011
00177,125400000,1970,1,1,0,17,37,0,-0.036039,-0.017726,9.817867,-0.006104,0.003397,-0.000523,0.560929,0.323211,0.103415,-0.034206,0.169983,61.693871
00178,135400000,1970,1,1,0,17,37,0,-0.020999,-0.021362,9.798263,-0.004961,0.002132,0.001285,0.560634,0.317761,0.105921,-0.033091,0.169642,61.694885
00179,145400000,1970,1,1,0,17,37,0,-0.031290,-0.027322,9.789823,-0.005283,0.005190,0.002042,0.552709,0.331929,0.105323,-0.032159,0.171054,61.697060
00180,155400000,1970,1,1,0,17,37,0,-0.027465,-0.023978,9.798300,-0.007985,0.005054,0.002645,0.552715,0.326209,0.102743,-0.032776,0.172386,61.696613
00181,165400000,1970,1,1,0,17,37,0,-0.022794,-0.010475,9.817568,-0.003870,0.001577,0.000317,0.563691,0.323142,0.103644,-0.031040,0.171727,61.695789
00182,175400000,1970,1,1,0,17,37,0,-0.035112,0.001056,9.812169,-0.007055,0.002972,0.001080,0.566676,0.325730,0.101349,-0.031125,0.171867,61.696869
00183,185400000,1970,1,1,0,17,37,0,-0.035853,0.002087,9.799942,-0.008249,0.002749,0.000725,0.555254,0.323483,0.105498,-0.031897,0.171880,61.697521
00184,195400000,1970,1,1,0,17,37,0,-0.037541,0.002330,9.803007,-0.005611,0.003459,0.000022,0.552925,0.340305,0.105377,-0.031159,0.172300,61.697018
00185,205400000,1970,1,1,0,17,37,0,-0.036525,-0.005689,9.796499,-0.006475,0.005495,0.000666,0.569071,0.317420,0.104068,-0.030911,0.173886,61.694019
00186,215400000,1970,1,1,0,17,37,0,-0.022278,-0.002172,9.813653,-0.005092,0.000034,-0.000389,0.555477,0.326140,0.102973,-0.029873,0.172342,61.695694
00187,225400000,1970,1,1,0,17,37,0,-0.034015,-0.016728,9.815996,-0.007062,0.002539,-0.000903,0.550030,0.323351,0.099952,-0.029966,0.172234,61.694244
00188,235400000,1970,1,1,0,17,37,0,-0.020643,-0.029696,9.806931,-0.005879,-0.000756,0.000967,0.555477,0.326140,0.102973,-0.029379,0.170238,61.693848
00189,245400000,1970,1,1,0,17,37,0,-0.038730,-0.019513,9.793984,-0.006176,0.002208,0.001226,0.566676,0.325730,0.101349,-0.028960,0.169942,61.693699
00190,255400000,1970,1,1,0,17,37,0,-0.033718,-0.011899,9.795713,-0.009616,0.006946,-0.000915,0.561079,0.323076,0.100871,-0.030516,0.172359,61.693390
00191,265400000,1970,1,1,0,17,37,0,-0.030248,-0.018148,9.808810,-0.007548,0.004884,0.002708,0.561001,0.326003,0.103433,-0.030880,0.173596,61.694996
00192,275400000,1970,1,1,0,17,37,0,-0.030462,-0.013775,9.814384,-0.007245,0.004460,0.000959,0.555471,0.331860,0.105553,-0.031074,0.174590,61.695091
00193,285400000,1970,1,1,0,17,37,0,-0.038076,-0.002568,9.819606,-0.008737,0.002401,0.000885,0.561001,0.326003,0.103433,-0.032124,0.174404,61.693642
00194,295400000,1970,1,1,0,17,37,0,-0.020168,-0.009967,9.797073,-0.004858,0.001370,-0.001509,0.549868,0.334925,0.107654,-0.030954,0.173625,61.692371
00195,305400000,1970,1,1,0,17,37,0,-0.030088,-0.003127,9.792556,-0.006726,0.005770,0.000744,0.563535,0.328996,0.108767,-0.030853,0.175369,61.689827
00196,315400000,1970,1,1,0,17,37,0,-0.036189,0.003495,9.805275,-0.007499,0.002744,0.000457,0.564064,0.325664,0.098576,-0.031192,0.175380,61.689579
00197,325400000,1970,1,1,0,17,37,0,-0.046783,0.004297,9.824219,-0.007079,-0.001337,0.000253,0.552787,0.329001,0.102761,-0.031290,0.173051,61.689804
00198,335400000,1970,1,1,0,17,37,0,-0.032041,-0.011862,9.819106,-0.006043,0.005100,0.000043,0.558311,0.328864,0.103221,-0.030797,0.174411,61.688240
00199,345400000,1970,1,1,0,17,37,0,-0.038963,-0.002187,9.802515,-0.007225,0.004521,-0.000340,0.561152,0.325868,0.100890,-0.030981,0.175439,61.687065
00200,355400000,1970,1,1,0,17,37,0,-0.038032,-0.006573,9.796481,-0.006370,0.005423,0.001978,0.552636,0.329136,0.105305,-0.030672,0.176983,61.688007
00201,365400000,1970,1,1,0,17,37,0,-0.017880,-0.015881,9.806133,-0.005708,0.004345,0.002269,0.560995,0.331722,0.106012,-0.029984,0.177910,61.687675
00202,375400000,1970,1,1,0,17,37,0,-0.020474,-0.018178,9.825437,-0.003743,0.004771,0.000194,0.552709,0.331929,0.105323,-0.028175,0.179082,61.686596
00203,385400000,1970,1,1,0,17,37,0,-0.029881,-0.003657,9.824700,-0.004804,0.002116,0.002360,0.563691,0.323142,0.103644,-0.026968,0.178733,61.685898
00204,395400000,1970,1,1,0,17,37,0,-0.039568,-0.003522,9.818280,-0.009320,0.001954,0.000313,0.555772,0.331590,0.100466,-0.028348,0.178291,61.686787
00205,405400000,1970,1,1,0,17,37,0,-0.032637,0.007244,9.802588,-0.006817,0.002653,0.000378,0.563541,0.323277,0.106188,-0.028296,0.178247,61.685345
00206,415400000,1970,1,1,0,17,37,0,-0.033424,-0.009370,9.811134,-0.009854,0.001617,0.000630,0.560773,0.329065,0.108537,-0.029984,0.177612,61.686329
00207,425400000,1970,1,1,0,17,37,0,-0.027032,-0.018595,9.815617,-0.006037,0.000431,0.002629,0.566821,0.331315,0.101386,-0.029481,0.176297,61.687088
00208,435400000,1970,1,1,0,17,37,0,-0.037512,-0.010641,9.800756,-0.004630,0.000928,-0.000180,0.558383,0.331656,0.103239,-0.028179,0.175265,61.686417
00209,445400000,1970,1,1,0,17,37,0,-0.022135,-0.008485,9.822914,-0.006874,0.003606,0.002514,0.563474,0.314765,0.103590,-0.028158,0.175771,61.686363
00210,455400000,1970,1,1,0,17,37,0,-0.036959,-0.004575,9.802897,-0.007601,0.003852,0.002981,0.566826,0.325595,0.098806,-0.028549,0.176418,61.690208
00211,465400000,1970,1,1,0,17,37,0,-0.039191,-0.018215,9.801570,-0.005605,0.002613,-0.000626,0.552342,0.323687,0.107811,-0.027806,0.176352,61.690208
00212,475400000,1970,1,1,0,17,37,0,-0.034229,-0.021875,9.798200,-0.007557,0.001169,0.003240,0.561001,0.326003,0.103433,-0.028170,0.175460,61.691177
00213,485400000,1970,1,1,0,17,37,0,-0.036779,-0.028146,9.808375,-0.008215,0.004157,0.001135,0.552937,0.328866,0.100218,-0.028917,0.176280,61.691395
00214,495400000,1970,1,1,0,17,37,0,-0.017069,-0.031409,9.810540,-0.008233,0.000928,0.002351,0.558011,0.329134,0.108308,-0.029673,0.175249,61.690971
00215,505400000,1970,1,1,0,17,37,0,-0.026105,-0.009113,9.808859,-0.009535,0.002302,0.000998,0.566526,0.325865,0.103893,-0.031174,0.175004,61.690315
00216,515400000,1970,1,1,0,17,37,0,-0.039166,-0.010842,9.814380,-0.007896,0.002600,0.002976,0.552420,0.320760,0.105250,-0.031736,0.174931,61.692276
00217,525400000,1970,1,1,0,17,37,0,-0.026373,-0.019823,9.804596,-0.009311,0.001326,0.001473,0.557872,0.317830,0.105692,-0.033112,0.174129,61.692791
00218,535400000,1970,1,1,0,17,37,0,-0.028781,0.000749,9.802288,-0.005962,-0.000323,0.000523,0.549952,0.326278,0.102513,-0.032570,0.172381,61.693806
00219,545400000,1970,1,1,0,17,37,0,-0.021428,0.011736,9.807605,-0.007600,0.003819,-0.001284,0.569516,0.322734,0.099018,-0.032970,0.173006,61.691357
00220,555400000,1970,1,1,0,17,37,0,-0.017900,-0.004631,9.802324,-0.008461,0.003479,0.001017,0.560989,0.337442,0.108592,-0.033858,0.173438,61.692921
00221,565400000,1970,1,1,0,17,37,0,-0.034175,-0.008134,9.804715,-0.007062,0.003336,0.001217,0.563763,0.325934,0.103663,-0.033946,0.173784,61.691006
00222,575400000,1970,1,1,0,17,37,0,-0.027895,-0.010682,9.799229,-0.005004,0.000696,0.001154,0.563908,0.331518,0.103699,-0.032856,0.172622,61.691532
00223,585400000,1970,1,1,0,17,37,0,-0.024914,-0.023813,9.811975,-0.005603,0.003607,0.000664,0.566375,0.326000,0.106436,-0.032108,0.173127,61.690742
00224,595400000,1970,1,1,0,17,37,0,-0.042487,-0.021678,9.810307,-0.007063,0.002210,0.003618,0.560929,0.323211,0.103415,-0.032190,0.172832,61.692905
00225,605400000,1970,1,1,0,17,37,0,-0.027911,-0.029454,9.797817,-0.005697,0.003081,0.001639,0.544356,0.323623,0.102036,-0.031496,0.173035,61.693779
00226,615400000,1970,1,1,0,17,37,0,-0.015213,-0.019152,9.809960,-0.006265,0.003177,-0.000924,0.553015,0.325939,0.097657,-0.031131,0.173292,61.691410
00227,625400000,1970,1,1,0,17,37,0,-0.033858,-0.023348,9.807460,-0.006428,0.000117,0.000332,0.558083,0.331926,0.108326,-0.030854,0.171797,61.690315
00228,635400000,1970,1,1,0,17,37,0,-0.027657,-0.016163,9.798882,-0.008152,0.004303,0.001449,0.555621,0.331725,0.103010,-0.031570,0.172701,61.689346
00229,645400000,1970,1,1,0,17,37,0,-0.035831,-0.027962,9.812061,-0.005698,0.002387,0.001579,0.566153,0.323343,0.108961,-0.030876,0.172505,61.688335
00230,655400000,1970,1,1,0,17,37,0,-0.033003,-0.014419,9.821113,-0.007781,0.004867,0.002788,0.558317,0.323144,0.100642,-0.031371,0.173732,61.690659
00231,665400000,1970,1,1,0,17,37,0,-0.042555,0.004125,9.814437,-0.010277,0.000320,0.002878,0.558167,0.323279,0.103185,-0.033295,0.172355,61.692135
00232,675400000,1970,1,1,0,17,37,0,-0.042090,0.001814,9.816349,-0.004890,0.003347,0.002164,0.560779,0.323346,0.105958,-0.032138,0.172711,61.693138
00233,685400000,1970,1,1,0,17,37,0,-0.020232,0.008165,9.801815,-0.006723,0.004260,-0.000463,0.564058,0.331383,0.101156,-0.032031,0.173589,61.692860
00234,695400000,1970,1,1,0,17,37,0,-0.019907,-0.016200,9.814879,-0.003517,0.000099,0.001467,0.552486,0.329271,0.107848,-0.030084,0.172083,61.692543
00235,705400000,1970,1,1,0,17,37,0,-0.022262,-0.007125,9.804170,-0.006149,0.001234,0.001701,0.560556,0.320688,0.108483,-0.029648,0.171228,61.691589
00236,715400000,1970,1,1,0,17,37,0,-0.038873,-0.021458,9.814989,-0.008047,0.002580,0.001694,0.552636,0.329136,0.105305,-0.030300,0.171145,61.693054
00237,725400000,1970,1,1,0,17,37,0,-0.041165,-0.013912,9.809727,-0.008629,0.002444,0.000995,0.552871,0.320355,0.097620,-0.031286,0.170981,61.691719
00238,735400000,1970,1,1,0,17,37,0,-0.022363,-0.014567,9.805831,-0.008964,0.002407,0.003560,0.557794,0.320757,0.108253,-0.032460,0.170798,61.693535
00239,745400000,1970,1,1,0,17,37,0,-0.036714,-0.002229,9.802779,-0.007315,0.001908,0.003761,0.566821,0.331315,0.101386,-0.032687,0.170330,61.695885
00240,755400000,1970,1,1,0,17,37,0,-0.028976,-0.016909,9.802544,-0.007232,0.002536,0.001085,0.555477,0.326140,0.102973,-0.032871,0.170221,61.695652
00241,765400000,1970,1,1,0,17,37,0,-0.037244,-0.007889,9.818676,-0.004903,0.003588,0.001835,0.557872,0.317830,0.105692,-0.031720,0.170714,61.695602
00242,775400000,1970,1,1,0,17,37,0,-0.037623,0.000518,9.810476,-0.008216,0.004365,0.003932,0.561152,0.325868,0.100890,-0.032465,0.171654,61.698563
00243,785400000,1970,1,1,0,17,37,0,-0.039211,-0.016567,9.799077,-0.007887,0.003480,0.001030,0.544055,0.323893,0.107122,-0.033024,0.172085,61.698624
00244,795400000,1970,1,1,0,17,37,0,-0.027857,-0.021084,9.812527,-0.004809,0.002282,0.002453,0.563769,0.320215,0.101083,-0.031819,0.171831,61.698055
00245,805400000,1970,1,1,0,17,37,0,-0.027317,-0.008810,9.808021,-0.006776,0.005608,0.000057,0.558383,0.331656,0.103239,-0.031745,0.173481,61.698990
00246,815400000,1970,1,1,0,17,37,0,-0.016083,-0.017296,9.808530,-0.006729,0.002557,-0.000496,0.564058,0.331383,0.101156,-0.031642,0.173383,61.696774
00247,825400000,1970,1,1,0,17,37,0,-0.028333,-0.004905,9.801352,-0.005521,0.001675,0.000116,0.558395,0.320217,0.098080,-0.030847,0.172778,61.695625
00248,835400000,1970,1,1,0,17,37,0,-0.036906,-0.022062,9.786066,-0.007472,0.004970,0.000580,0.555916,0.337174,0.100503,-0.031169,0.174064,61.696274
00249,845400000,1970,1,1,0,17,37,0,-0.029055,-0.026573,9.825317,-0.003639,0.000703,0.000149,0.555410,0.317629,0.100375,-0.029298,0.172902,61.693111
00250,855400000,1970,1,1,0,17,37,0,-0.035428,-0.007687,9.793668,-0.006058,0.004106,0.002911,0.566303,0.323208,0.106418,-0.028807,0.173692,61.695377
00251,865400000,1970,1,1,0,17,37,0,-0.033529,-0.008760,9.815052,-0.007194,0.005719,0.001870,0.563541,0.323277,0.106188,-0.028968,0.175409,61.697128
00252,875400000,1970,1,1,0,17,37,0,-0.020776,-0.016896,9.818671,-0.006451,0.003900,0.001055,0.558239,0.326072,0.103203,-0.028703,0.176081,61.697994
00253,885400000,1970,1,1,0,17,37,0,-0.031135,-0.007649,9.795981,-0.006293,0.004241,-0.001215,0.564347,0.342552,0.101229,-0.028352,0.176948,61.696396
00254,895400000,1970,1,1,0,17,37,0,-0.034680,-0.015428,9.816696,-0.006086,0.002242,0.002725,0.566375,0.326000,0.106436,-0.027878,0.176669,61.694477
00255,905400000,1970,1,1,0,17,37,0,-0.034098,-0.002058,9.817407,-0.006026,0.003049,-0.001255,0.552642,0.323417,0.102725,-0.027375,0.176852,61.693943
00256,915400000,1970,1,1,0,17,37,0,-0.033820,-0.003270,9.810291,-0.006296,0.000104,0.003100,0.560773,0.329065,0.108537,-0.027021,0.175349,61.694813
00257,925400000,1970,1,1,0,17,37,0,-0.041274,0.007057,9.809001,-0.008051,0.001756,0.000748,0.563541,0.323277,0.106188,-0.027673,0.174792,61.694107
00258,935400000,1970,1,1,0,17,37,0,-0.026499,-0.007218,9.809091,-0.008073,0.000294,-0.001005,0.555338,0.314837,0.100357,-0.028343,0.173398,61.693935
00259,945400000,1970,1,1,0,17,37,0,-0.046193,0.004177,9.799798,-0.004424,0.001008,-0.000212,0.558022,0.317695,0.103148,-0.026918,0.172414,61.694912
00260,955400000,1970,1,1,0,17,37,0,-0.029060,-0.022426,9.809540,-0.006510,-0.000273,0.001792,0.561146,0.331587,0.103469,-0.026687,0.170698,61.696663
00261,965400000,1970,1,1,0,17,37,0,-0.028839,-0.024947,9.809189,-0.008536,0.001447,0.004130,0.555916,0.337174,0.100503,-0.027613,0.169966,61.697208
00262,975400000,1970,1,1,0,17,37,0,-0.019813,-0.029916,9.818688,-0.007079,0.002745,0.001349,0.555393,0.334787,0.108114,-0.027708,0.169976,61.694462
00263,985400000,1970,1,1,0,17,37,0,-0.042515,-0.019758,9.809830,-0.008067,0.002119,0.002076,0.544500,0.329208,0.102072,-0.028371,0.169628,61.692749
00264,995400000,1970,1,1,0,17,37,0,-0.019595,-0.027612,9.812163,-0.006928,0.001780,0.001409,0.552636,0.329136,0.105305,-0.028382,0.169085,61.690651
00265,5400000,1970,1,1,0,17,38,0,-0.026523,-0.010448,9.809568,-0.006140,0.003647,0.001623,0.560863,0.314699,0.100817,-0.027938,0.169612,61.689758
00266,15400000,1970,1,1,0,17,38,0,-0.028609,-0.003424,9.805381,-0.006959,0.002440,0.003449,0.558311,0.328864,0.103221,-0.027962,0.169451,61.693874
00267,25400000,1970,1,1,0,17,38,0,-0.037816,0.001278,9.805010,-0.010584,0.003096,0.001125,0.560622,0.329200,0.111081,-0.030065,0.169660,61.693287
00268,35400000,1970,1,1,0,17,38,0,-0.043158,0.001442,9.813610,-0.006798,0.004889,0.001084,0.563691,0.323142,0.103644,-0.029998,0.170899,61.692921
00269,45400000,1970,1,1,0,17,38,0,-0.028171,-0.009800,9.806943,-0.007407,0.004094,0.002093,0.566448,0.328792,0.106454,-0.030276,0.171684,61.694763
00270,55400000,1970,1,1,0,17,38,0,-0.034517,-0.001052,9.822265,-0.006172,0.001438,0.000516,0.563535,0.328996,0.108767,-0.029852,0.170946,61.694763
00271,65400000,1970,1,1,0,17,38,0,-0.029005,-0.008520,9.809411,-0.005639,0.002114,0.003555,0.572128,0.322800,0.101791,-0.029119,0.170595,61.696041
00272,75400000,1970,1,1,0,17,38,0,-0.024523,-0.014131,9.811257,-0.010321,0.002353,0.000135,0.563914,0.325799,0.101119,-0.031073,0.170382,61.697685
00273,85400000,1970,1,1,0,17,38,0,-0.037731,-0.008964,9.816178,-0.008813,0.001419,0.001385,0.561302,0.325733,0.098346,-0.032162,0.169633,61.698338
00274,95400000,1970,1,1,0,17,38,0,-0.027636,-0.025396,9.823205,-0.009339,0.000359,0.002098,0.560929,0.323211,0.103415,-0.033550,0.168277,61.699085
00275,105400000,1970,1,1,0,17,38,0,-0.026066,-0.030313,9.806146,-0.006851,0.003919,0.002249,0.558389,0.325937,0.100660,-0.033513,0.168961,61.700359
00276,115400000,1970,1,1,0,17,38,0,-0.030138,-0.040638,9.804201,-0.004177,0.002184,0.004945,0.560851,0.326138,0.105976,-0.031940,0.168652,61.702263
00277,125400000,1970,1,1,0,17,38,0,-0.042608,-0.013392,9.799975,-0.006523,0.000932,0.002208,0.566526,0.325865,0.103893,-0.031718,0.167626,61.702877
00278,135400000,1970,1,1,0,17,38,0,-0.032760,-0.011112,9.803077,-0.006640,0.000857,0.001664,0.560406,0.320823,0.111026,-0.031560,0.166555,61.703896
00279,145400000,1970,1,1,0,17,38,0,-0.022845,-0.002802,9.811276,-0.001287,0.000544,0.000773,0.563836,0.328726,0.103681,-0.028338,0.165304,61.704666
00280,155400000,1970,1,1,0,17,38,0,-0.017319,-0.008050,9.799610,-0.005805,0.003945,0.000058,0.555555,0.323213,0.100412,-0.027704,0.166001,61.703751
00281,165400000,1970,1,1,0,17,38,0,-0.032181,-0.017134,9.812111,-0.005681,0.000770,0.001097,0.566375,0.326000,0.106436,-0.026999,0.164883,61.703594
00282,175400000,1970,1,1,0,17,38,0,-0.022121,0.000039,9.807488,-0.007196,0.003332,0.002630,0.555254,0.323483,0.105498,-0.027157,0.165231,61.704987
00283,185400000,1970,1,1,0,17,38,0,-0.033184,-0.015198,9.807823,-0.005160,0.003773,0.000666,0.561224,0.328660,0.100908,-0.026156,0.165831,61.704464
00284,195400000,1970,1,1,0,17,38,0,-0.026505,-0.011796,9.824046,-0.006810,0.005701,0.000795,0.555326,0.326275,0.105516,-0.026098,0.167534,61.703644
00285,205400000,1970,1,1,0,17,38,0,-0.025931,-0.030068,9.812554,-0.006049,0.002300,0.000711,0.555483,0.320421,0.100394,-0.025601,0.167289,61.702652
00286,215400000,1970,1,1,0,17,38,0,-0.026818,-0.022620,9.805777,-0.004967,0.002218,0.002320,0.549946,0.331997,0.105093,-0.024486,0.166999,61.703793
00287,225400000,1970,1,1,0,17,38,0,-0.017102,-0.017303,9.813260,-0.010044,0.004550,-0.000761,0.555471,0.331860,0.105553,-0.026286,0.168041,61.700283
00288,235400000,1970,1,1,0,17,38,0,-0.026063,-0.026771,9.804485,-0.005994,0.000933,0.002224,0.552709,0.331929,0.105323,-0.025758,0.167014,61.699280
00289,245400000,1970,1,1,0,17,38,0,-0.030206,-0.014013,9.820558,-0.005693,0.003285,-0.000079,0.547485,0.331796,0.099777,-0.025064,0.167333,61.696758
00290,255400000,1970,1,1,0,17,38,0,-0.036337,-0.006494,9.816437,-0.007711,0.003221,-0.000652,0.563836,0.328726,0.103681,-0.025526,0.167616,61.693501
00291,265400000,1970,1,1,0,17,38,0,-0.032086,-0.014345,9.811631,-0.007764,0.002989,0.000790,0.566670,0.331450,0.103929,-0.026016,0.167765,61.693535
00292,275400000,1970,1,1,0,17,38,0,-0.026643,-0.010778,9.806723,-0.005381,0.003797,-0.000160,0.547401,0.340443,0.104918,-0.025140,0.168378,61.692802
00293,285400000,1970,1,1,0,17,38,0,-0.011266,-0.002762,9.801346,-0.008589,0.002752,0.004141,0.563992,0.322872,0.098558,-0.026094,0.168392,61.690659
00294,295400000,1970,1,1,0,17,38,0,-0.022674,-0.005005,9.806648,-0.007302,0.000698,0.001199,0.560917,0.334649,0.108574,-0.026319,0.167229,61.692265
00295,305400000,1970,1,1,0,17,38,0,-0.027668,0.001035,9.818085,-0.006656,0.002350,0.002903,0.555404,0.323348,0.102955,-0.026168,0.167013,61.692127
00296,315400000,1970,1,1,0,17,38,0,-0.029756,-0.008353,9.809161,-0.007559,0.001422,0.001818,0.552709,0.331929,0.105323,-0.026537,0.166266,61.693069
00297,325400000,1970,1,1,0,17,38,0,-0.030064,-0.023106,9.800632,-0.007385,0.003335,0.000677,0.566225,0.326135,0.108979,-0.026811,0.166614,61.691299
00298,335400000,1970,1,1,0,17,38,0,-0.027475,-0.016672,9.813596,-0.004825,0.004289,0.003444,0.558011,0.329134,0.108308,-0.025612,0.167512,61.693840
00299,345400000,1970,1,1,0,17,38,0,-0.027345,-0.016218,9.813598,-0.007813,0.001938,0.002176,0.546968,0.323689,0.104809,-0.026127,0.167060,61.694080
00300,355400000,1970,1,1,0,17,38,0,-0.021729,-0.021859,9.821980,-0.006460,0.002451,0.001245,0.561068,0.334514,0.106031,-0.025866,0.166902,61.693684
00301,365400000,1970,1,1,0,17,38,0,-0.027182,-0.014722,9.813478,-0.008840,0.002790,-0.001302,0.555399,0.329068,0.105535,-0.026973,0.166935,61.691204
00302,375400000,1970,1,1,0,17,38,0,-0.011104,-0.027115,9.796028,-0.006452,0.001416,0.000643,0.557938,0.326341,0.108289,-0.026708,0.166182,61.690365
00303,385400000,1970,1,1,0,17,38,0,-0.047419,0.001673,9.809272,-0.006926,0.002273,-0.000022,0.566309,0.317488,0.103838,-0.026718,0.165923,61.690071
00304,395400000,1970,1,1,0,17,38,0,-0.049346,-0.000525,9.810913,-0.006715,0.003576,0.002921,0.552865,0.326074,0.100200,-0.026601,0.166412,61.694176
00305,405400000,1970,1,1,0,17,38,0,-0.021376,-0.003622,9.816156,-0.005325,0.002557,0.001381,0.558450,0.340168,0.105837,-0.025690,0.166313,61.693901
00306,415400000,1970,1,1,0,17,38,0,-0.014239,-0.005465,9.810327,-0.007344,0.003905,0.002157,0.555772,0.331590,0.100466,-0.025935,0.166987,61.691807
00307,425400000,1970,1,1,0,17,38,0,-0.017202,-0.014143,9.812428,-0.005731,0.003817,-0.000753,0.560923,0.328930,0.105994,-0.025263,0.167612,61.689648
00308,435400000,1970,1,1,0,17,38,0,-0.026082,-0.020280,9.817410,-0.006836,0.001383,0.002600,0.563908,0.331518,0.103699,-0.025218,0.166842,61.690643
00309,445400000,1970,1,1,0,17,38,0,-0.041213,-0.005930,9.806046,-0.006114,0.005725,0.004482,0.555627,0.326005,0.100430,-0.024757,0.168561,61.692509
00310,455400000,1970,1,1,0,17,38,0,-0.030320,-0.032813,9.804079,-0.007739,0.002915,0.000134,0.547413,0.329004,0.099759,-0.025228,0.168670,61.692085
00311,465400000,1970,1,1,0,17,38,0,-0.042062,-0.015056,9.808290,-0.008276,0.002104,-0.000158,0.547184,0.332066,0.104863,-0.026012,0.168312,61.689865
00312,475400000,1970,1,1,0,17,38,0,-0.036383,-0.008747,9.790335,-0.006824,0.001798,0.000359,0.549946,0.331997,0.105093,-0.025965,0.167780,61.687340
00313,485400000,1970,1,1,0,17,38,0,-0.019087,-0.018333,9.796507,-0.003527,0.002043,0.000707,0.552642,0.323417,0.102725,-0.024026,0.167388,61.685467
00314,495400000,1970,1,1,0,17,38,0,-0.032773,-0.004397,9.825849,-0.007123,0.001736,0.004191,0.566303,0.323208,0.106418,-0.024143,0.166820,61.687832
00315,505400000,1970,1,1,0,17,38,0,-0.028603,-0.003706,9.803128,-0.007480,0.002874,-0.000507,0.563914,0.325799,0.101119,-0.024471,0.166906,61.689110
00316,515400000,1970,1,1,0,17,38,0,-0.034468,-0.001201,9.805541,-0.009010,0.002650,0.002046,0.557866,0.323549,0.108271,-0.025670,0.166861,61.690926
00317,525400000,1970,1,1,0,17,38,0,-0.041651,0.002594,9.812675,-0.005640,0.006042,-0.001511,0.560706,0.320553,0.105940,-0.024945,0.168760,61.690384
00318,535400000,1970,1,1,0,17,38,0,-0.038077,-0.011508,9.809647,-0.007572,0.001716,-0.000513,0.563685,0.328861,0.106224,-0.025324,0.168181,61.691391
00319,545400000,1970,1,1,0,17,38,0,-0.038829,0.000267,9.802752,-0.006356,0.002487,0.001602,0.564142,0.322737,0.096015,-0.025006,0.168044,61.692051
00320,555400000,1970,1,1,0,17,38,0,-0.031877,-0.007556,9.807953,-0.009787,0.001256,0.002982,0.547268,0.323420,0.099722,-0.026648,0.167203,61.694885
00321,565400000,1970,1,1,0,17,38,0,-0.020935,-0.021971,9.813921,-0.006294,0.001417,0.000642,0.563763,0.325934,0.103663,-0.026295,0.166452,61.694000
00322,575400000,1970,1,1,0,17,38,0,-0.031061,-0.017860,9.812244,-0.006147,0.004341,0.002150,0.561152,0.325868,0.100890,-0.025853,0.167378,61.695568
00323,585400000,1970,1,1,0,17,38,0,-0.027111,-0.014959,9.808256,-0.006717,0.002755,0.001901,0.558245,0.320352,0.100623,-0.025739,0.167396,61.696594
00324,595400000,1970,1,1,0,17,38,0,-0.024138,-0.013905,9.789079,-0.007831,0.004413,0.001233,0.563613,0.326069,0.106206,-0.026262,0.168363,61.698082
00325,605400000,1970,1,1,0,17,38,0,-0.036876,-0.016060,9.824971,-0.006777,0.002855,0.001709,0.561001,0.326003,0.103433,-0.026181,0.168437,61.699184
00326,615400000,1970,1,1,0,17,38,0,-0.021929,-0.018998,9.812125,-0.006892,0.000313,0.000795,0.552636,0.329136,0.105305,-0.026169,0.167054,61.699429
00327,625400000,1970,1,1,0,17,38,0,-0.017814,-0.009129,9.817286,-0.005102,0.003565,0.002278,0.563463,0.326204,0.108749,-0.025129,0.167532,61.698662
00328,635400000,1970,1,1,0,17,38,0,-0.011876,-0.011011,9.816887,-0.006919,0.003330,0.001803,0.558239,0.326072,0.103203,-0.025129,0.167877,61.699783
00329,645400000,1970,1,1,0,17,38,0,-0.030691,-0.003727,9.812711,-0.006922,0.001353,-0.000262,0.566526,0.325865,0.103893,-0.025136,0.167089,61.698997
00330,655400000,1970,1,1,0,17,38,0,-0.018597,-0.006849,9.805644,-0.007417,0.003586,0.001990,0.566002,0.323478,0.111504,-0.025421,0.167581,61.700684
00331,665400000,1970,1,1,0,17,38,0,-0.033667,-0.006463,9.821929,-0.008077,0.004660,0.001311,0.549952,0.326278,0.102513,-0.026085,0.168691,61.702435
00332,675400000,1970,1,1,0,17,38,0,-0.027274,-0.010021,9.822136,-0.007596,0.001477,0.004492,0.557938,0.326341,0.108289,-0.026471,0.167976,61.703056
00333,685400000,1970,1,1,0,17,38,0,-0.027770,-0.031944,9.811110,-0.007782,0.002559,0.001169,0.550169,0.334655,0.102568,-0.026968,0.167879,61.702885
00334,695400000,1970,1,1,0,17,38,0,-0.033401,-0.020389,9.792754,-0.005168,0.004064,0.001242,0.550247,0.331727,0.100007,-0.025967,0.168642,61.699722
00335,705400000,1970,1,1,0,17,38,0,-0.034675,-0.026562,9.804961,-0.005416,0.000962,-0.000061,0.563541,0.323277,0.106188,-0.025112,0.167629,61.696732
00336,715400000,1970,1,1,0,17,38,0,-0.034747,-0.027861,9.798077,-0.003810,0.001909,0.002929,0.555549,0.328933,0.102991,-0.023331,0.167162,61.699348
00337,725400000,1970,1,1,0,17,38,0,-0.041442,-0.014226,9.801424,-0.006572,0.004359,0.002683,0.541293,0.323962,0.106892,-0.023132,0.168097,61.699314
00338,735400000,1970,1,1,0,17,38,0,-0.025514,-0.015765,9.819552,-0.009160,0.001829,0.001586,0.560845,0.331857,0.108556,-0.024415,0.167582,61.697941
00339,745400000,1970,1,1,0,17,38,0,-0.023896,-0.004106,9.808299,-0.004957,0.003624,0.001902,0.560779,0.323346,0.105958,-0.023294,0.168095,61.697598
00340,755400000,1970,1,1,0,17,38,0,-0.031231,0.022118,9.803550,-0.007625,0.004420,0.000136,0.571822,0.328790,0.109457,-0.023704,0.169066,61.698322
00341,765400000,1970,1,1,0,17,38,0,-0.036128,0.003492,9.818681,-0.007361,0.001220,0.004334,0.558089,0.326207,0.105746,-0.023954,0.168203,61.701607
00342,775400000,1970,1,1,0,17,38,0,-0.025526,-0.011371,9.783835,-0.005784,0.002189,0.000759,0.552865,0.326074,0.100200,-0.023307,0.167894,61.701450
00343,785400000,1970,1,1,0,17,38,0,-0.038121,-0.016132,9.816772,-0.006587,0.004371,0.002682,0.558456,0.334448,0.103258,-0.023119,0.168836,61.701744
00344,795400000,1970,1,1,0,17,38,0,-0.041837,-0.025140,9.823249,-0.006085,0.000141,-0.000067,0.561073,0.328795,0.103451,-0.022647,0.167355,61.699211
00345,805400000,1970,1,1,0,17,38,0,-0.019830,-0.035171,9.819050,-0.006364,0.002171,-0.000127,0.557938,0.326341,0.108289,-0.022333,0.167036,61.698444
00346,815400000,1970,1,1,0,17,38,0,-0.025843,-0.039144,9.793822,-0.007020,0.003077,0.001054,0.569216,0.323004,0.104104,-0.022392,0.167234,61.698547
00347,825400000,1970,1,1,0,17,38,0,-0.023824,-0.030952,9.796096,-0.008151,0.003399,-0.000494,0.561224,0.328660,0.100908,-0.023104,0.167618,61.700092
00348,835400000,1970,1,1,0,17,38,0,-0.035339,-0.014502,9.802100,-0.010572,0.004582,0.000176,0.561073,0.328795,0.103451,-0.025200,0.168682,61.699429
00349,845400000,1970,1,1,0,17,38,0,-0.023085,-0.024035,9.826116,-0.008450,0.002947,0.002028,0.560851,0.326138,0.105976,-0.026079,0.168808,61.699783
00350,855400000,1970,1,1,0,17,38,0,-0.032842,-0.004798,9.825020,-0.007565,0.000023,0.000093,0.547629,0.337381,0.099813,-0.026454,0.167259,61.699654
00351,865400000,1970,1,1,0,17,38,0,-0.033360,0.005751,9.799495,-0.008606,0.002420,0.001108,0.558684,0.331386,0.098153,-0.027427,0.167083,61.695515
00352,875400000,1970,1,1,0,17,38,0,-0.027260,0.005743,9.795671,-0.005140,0.002121,0.001445,0.561068,0.334514,0.106031,-0.026412,0.166737,61.694752
00353,885400000,1970,1,1,0,17,38,0,-0.031751,0.006477,9.804268,-0.006814,0.003241,-0.001216,0.561368,0.334244,0.100944,-0.026361,0.167031,61.692085
00354,895400000,1970,1,1,0,17,38,0,-0.026562,0.009903,9.837903,-0.006577,0.002308,-0.000051,0.563914,0.325799,0.101119,-0.026172,0.166789,61.690243
00355,905400000,1970,1,1,0,17,38,0,-0.020442,-0.005921,9.821990,-0.006601,0.003975,0.002483,0.552342,0.323687,0.107811,-0.025989,0.167504,61.692307
00356,915400000,1970,1,1,0,17,38,0,-0.028513,-0.018544,9.807174,-0.006127,0.003985,0.000697,0.555248,0.329203,0.108078,-0.025540,0.168224,61.692215
00357,925400000,1970,1,1,0,17,38,0,-0.031472,-0.033266,9.787098,-0.006286,0.004660,0.001961,0.552793,0.323282,0.100182,-0.025176,0.169330,61.691895
00358,935400000,1970,1,1,0,17,38,0,-0.019621,-0.049866,9.803521,-0.006561,0.004249,0.001591,0.563691,0.323142,0.103644,-0.024971,0.170202,61.692516
00359,945400000,1970,1,1,0,17,38,0,-0.021096,-0.027407,9.827686,-0.006893,0.001996,0.004268,0.552564,0.326344,0.105286,-0.024951,0.169783,61.696156
00360,955400000,1970,1,1,0,17,38,0,-0.035079,-0.021859,9.833303,-0.006060,0.002044,0.001387,0.555483,0.320421,0.100394,-0.024460,0.169391,61.695755
00361,965400000,1970,1,1,0,17,38,0,-0.030975,-0.006257,9.803691,-0.007699,0.001478,0.000552,0.549952,0.326278,0.102513,-0.024912,0.168674,61.696724
00362,975400000,1970,1,1,0,17,38,0,-0.030511,-0.008018,9.801207,-0.007410,0.001612,0.002192,0.561585,0.342621,0.100999,-0.025194,0.168034,61.696388
00363,985400000,1970,1,1,0,17,38,0,-0.031704,-0.007448,9.813524,-0.008649,0.000665,0.002031,0.564136,0.328456,0.098594,-0.026188,0.166850,61.693588
00364,995400000,1970,1,1,0,17,38,0,-0.046074,0.015027,9.827434,-0.007941,-0.000133,0.002833,0.569143,0.320212,0.104086,-0.026774,0.165213,61.695236
00365,5400000,1970,1,1,0,17,39,0,-0.011987,0.000078,9.830874,-0.006970,0.001080,-0.000726,0.569288,0.325796,0.104122,-0.026807,0.164271,61.697517
00366,15400000,1970,1,1,0,17,39,0,-0.027703,-0.000192,9.814646,-0.003814,0.003591,0.002857,0.552353,0.312248,0.102652,-0.025028,0.164767,61.700378
00367,25400000,1970,1,1,0,17,39,0,-0.028771,-0.003350,9.799324,-0.007038,0.003162,0.000526,0.571833,0.317351,0.104298,-0.025097,0.165016,61.702763
00368,35400000,1970,1,1,0,17,39,0,-0.033887,-0.019141,9.801648,-0.010790,0.004068,0.000420,0.563619,0.320349,0.103626,-0.027318,0.165786,61.706470
00369,45400000,1970,1,1,0,17,39,0,-0.026174,-0.043731,9.812560,-0.008097,0.000988,0.002595,0.563842,0.323007,0.101101,-0.027988,0.164787,61.709324
00370,55400000,1970,1,1,0,17,39,0,-0.028256,-0.025240,9.806469,-0.006576,0.000665,0.001636,0.555772,0.331590,0.100466,-0.027795,0.163605,61.710911
00371,65400000,1970,1,1,0,17,39,0,-0.039294,-0.033557,9.807864,-0.003916,0.003886,0.001025,0.566375,0.326000,0.106436,-0.026079,0.164271,61.708767
00372,75400000,1970,1,1,0,17,39,0,-0.026065,-0.023964,9.808162,-0.007058,0.004100,-0.000233,0.555248,0.329203,0.108078,-0.026163,0.165059,61.708942
00373,85400000,1970,1,1,0,17,39,0,-0.026609,-0.020128,9.790596,-0.007269,0.004203,0.001362,0.569354,0.334308,0.106720,-0.026367,0.165903,61.707531
00374,95400000,1970,1,1,0,17,39,0,-0.038254,-0.015556,9.806206,-0.009014,0.002250,0.000397,0.552715,0.326209,0.102743,-0.027570,0.165629,61.706421
00375,105400000,1970,1,1,0,17,39,0,-0.024242,-0.003226,9.813151,-0.008741,0.002802,0.000987,0.566676,0.325730,0.101349,-0.028616,0.165669,61.705280
00376,115400000,1970,1,1,0,17,39,0,-0.019323,-0.005464,9.804209,-0.008507,0.004961,0.003266,0.555693,0.334517,0.103028,-0.029523,0.166948,61.707672
00377,125400000,1970,1,1,0,17,39,0,-0.038681,0.010739,9.813414,-0.007560,0.000403,-0.000846,0.563908,0.331518,0.103699,-0.029897,0.165616,61.703842
00378,135400000,1970,1,1,0,17,39,0,-0.045096,-0.008651,9.790810,-0.005821,0.002610,0.002462,0.563535,0.328996,0.108767,-0.029269,0.165550,61.703976
00379,145400000,1970,1,1,0,17,39,0,-0.033052,-0.005854,9.812442,-0.007001,0.003577,0.001099,0.561001,0.326003,0.103433,-0.029315,0.166035,61.703888
00380,155400000,1970,1,1,0,17,39,0,-0.040993,0.004700,9.804616,-0.008867,0.002572,-0.000047,0.558462,0.328729,0.100678,-0.030434,0.165943,61.703575
00381,165400000,1970,1,1,0,17,39,0,-0.037930,-0.007604,9.804554,-0.004340,0.004691,0.001377,0.558161,0.328999,0.105764,-0.028958,0.167069,61.702988
00382,175400000,1970,1,1,0,17,39,0,-0.034666,-0.024083,9.814686,-0.005923,0.001319,0.003084,0.561290,0.337172,0.103506,-0.028389,0.166262,61.703316
00383,185400000,1970,1,1,0,17,39,0,-0.036919,-0.027706,9.796862,-0.009037,0.003795,0.001870,0.566369,0.331720,0.109015,-0.029605,0.166873,61.701408
00384,195400000,1970,1,1,0,17,39,0,-0.037498,-0.027006,9.805989,-0.008260,0.001098,0.002094,0.552564,0.326344,0.105286,-0.030375,0.165939,61.701832
00385,205400000,1970,1,1,0,17,39,0,-0.025318,-0.007597,9.813021,-0.005652,0.001617,-0.000483,0.555699,0.328798,0.100448,-0.029655,0.165301,61.700180
00386,215400000,1970,1,1,0,17,39,0,-0.029441,-0.014941,9.817600,-0.009236,0.001602,0.002715,0.544488,0.340647,0.107231,-0.030981,0.164655,61.700226
00387,225400000,1970,1,1,0,17,39,0,-0.036754,-0.003698,9.809661,-0.006039,0.003507,0.001486,0.546889,0.326617,0.107370,-0.030479,0.165100,61.695248
00388,235400000,1970,1,1,0,17,39,0,-0.029126,0.009778,9.793859,-0.006832,0.003764,0.001613,0.560851,0.326138,0.105976,-0.030430,0.165694,61.694374
00389,245400000,1970,1,1,0,17,39,0,-0.039635,0.007654,9.811750,-0.007831,0.003825,-0.000419,0.563836,0.328726,0.103681,-0.030959,0.166324,61.694340
00390,255400000,1970,1,1,0,17,39,0,-0.032018,-0.004314,9.826572,-0.008009,0.002540,0.001048,0.555621,0.331725,0.103010,-0.031585,0.166217,61.694893
00391,265400000,1970,1,1,0,17,39,0,-0.026451,-0.006230,9.815384,-0.007532,0.004896,0.001497,0.564064,0.325664,0.098576,-0.031935,0.167459,61.693836
00392,275400000,1970,1,1,0,17,39,0,-0.025582,-0.018949,9.806025,-0.007441,0.003387,0.002683,0.563763,0.325934,0.103663,-0.032231,0.167836,61.696110
00393,285400000,1970,1,1,0,17,39,0,-0.027249,-0.015894,9.805408,-0.008137,0.001410,0.001027,0.560784,0.317626,0.103378,-0.032935,0.167083,61.697262
00394,295400000,1970,1,1,0,17,39,0,-0.026843,-0.030918,9.820971,-0.006877,0.003621,0.001288,0.561224,0.328660,0.100908,-0.032912,0.167598,61.700066
00395,305400000,1970,1,1,0,17,39,0,-0.037300,-0.026671,9.810500,-0.006705,0.001552,0.002037,0.558161,0.328999,0.105764,-0.032790,0.166926,61.700588
00396,315400000,1970,1,1,0,17,39,0,-0.020826,-0.032615,9.812512,-0.008826,0.003921,0.001307,0.557866,0.323549,0.108271,-0.033882,0.167610,61.700188
00397,325400000,1970,1,1,0,17,39,0,-0.028177,-0.010195,9.804682,-0.007628,0.001870,0.001694,0.561152,0.325868,0.100890,-0.034287,0.167117,61.701294
00398,335400000,1970,1,1,0,17,39,0,-0.020765,-0.017886,9.801705,-0.007563,0.003145,0.002419,0.561068,0.334514,0.106031,-0.034655,0.167358,61.702644
00399,345400000,1970,1,1,0,17,39,0,-0.020621,-0.006778,9.813443,-0.008452,0.003665,-0.001758,0.563613,0.326069,0.106206,-0.035542,0.167894,61.699478
00400,355400000,1970,1,1,0,17,39,0,-0.034870,0.001868,9.810871,-0.006488,0.004869,0.004808,0.569294,0.320077,0.101543,-0.035289,0.169122,61.702530
00401,365400000,1970,1,1,0,17,39,0,-0.036656,0.008266,9.816654,-0.006864,0.004563,-0.001616,0.566526,0.325865,0.103893,-0.035260,0.170174,61.704052
00402,375400000,1970,1,1,0,17,39,0,-0.035897,0.015365,9.805387,-0.006400,0.001977,-0.001517,0.555477,0.326140,0.102973,-0.034968,0.169746,61.703705
00403,385400000,1970,1,1,0,17,39,0,-0.039214,-0.004140,9.807142,-0.004897,0.005664,-0.000035,0.557866,0.323549,0.108271,-0.033814,0.171430,61.702572
00404,395400000,1970,1,1,0,17,39,0,-0.030929,-0.000550,9.795144,-0.007966,0.001206,0.001106,0.552859,0.331794,0.102780,-0.034414,0.170558,61.703091
00405,405400000,1970,1,1,0,17,39,0,-0.024043,-0.025294,9.806767,-0.007403,0.000277,0.003066,0.563769,0.320215,0.101083,-0.034687,0.169155,61.702011
00406,415400000,1970,1,1,0,17,39,0,-0.012531,-0.038851,9.816185,-0.009100,0.004451,0.002180,0.561152,0.325868,0.100890,-0.035937,0.170143,61.704838
00407,425400000,1970,1,1,0,17,39,0,-0.020378,-0.033958,9.815485,-0.007227,0.003933,-0.000357,0.558089,0.326207,0.105746,-0.036119,0.170833,61.704319
00408,435400000,1970,1,1,0,17,39,0,-0.023728,-0.020560,9.814243,-0.005787,0.002752,0.002276,0.552715,0.326209,0.102743,-0.035469,0.170847,61.704830
00409,445400000,1970,1,1,0,17,39,0,-0.037755,-0.019882,9.819389,-0.003510,0.003714,0.004372,0.550175,0.328935,0.099988,-0.033509,0.171412,61.705795
00410,455400000,1970,1,1,0,17,39,0,-0.036235,-0.012688,9.800181,-0.008781,0.003494,0.001669,0.563396,0.317692,0.106151,-0.034578,0.171851,61.704216
00411,465400000,1970,1,1,0,17,39,0,-0.021657,-0.000643,9.807491,-0.007855,0.002696,0.000984,0.547485,0.331796,0.099777,-0.035116,0.171834,61.706886
00412,475400000,1970,1,1,0,17,39,0,-0.025918,-0.002714,9.797472,-0.005313,0.000592,-0.000306,0.555621,0.331725,0.103010,-0.034201,0.170610,61.703068
00413,485400000,1970,1,1,0,17,39,0,-0.039851,0.014945,9.803083,-0.007905,0.004020,0.002707,0.558311,0.328864,0.103221,-0.034768,0.171351,61.702221
00414,495400000,1970,1,1,0,17,39,0,-0.024859,-0.005552,9.813148,-0.006723,0.003917,-0.000794,0.555399,0.329068,0.105535,-0.034661,0.172030,61.700542
00415,505400000,1970,1,1,0,17,39,0,-0.037157,-0.011803,9.813098,-0.008922,0.002205,0.002804,0.552937,0.328866,0.100218,-0.035806,0.171731,61.700481
00416,515400000,1970,1,1,0,17,39,0,-0.038708,-0.014443,9.810711,-0.006749,0.003753,0.000096,0.561146,0.331587,0.103469,-0.035712,0.172319,61.698601
00417,525400000,1970,1,1,0,17,39,0,-0.026413,-0.034689,9.807097,-0.006389,0.001404,0.000866,0.566375,0.326000,0.106436,-0.035413,0.171559,61.697685
00418,535400000,1970,1,1,0,17,39,0,-0.024880,-0.009659,9.808638,-0.006514,0.001928,-0.000076,0.563463,0.326204,0.108749,-0.035183,0.171103,61.698425
00419,545400000,1970,1,1,0,17,39,0,-0.024661,-0.027782,9.809370,-0.006776,0.003115,-0.000398,0.550175,0.328935,0.099988,-0.035101,0.171324,61.698467
00420,555400000,1970,1,1,0,17,39,0,-0.030699,-0.025612,9.817234,-0.006883,0.002056,-0.000672,0.569282,0.331516,0.106702,-0.035086,0.170938,61.695686
00421,565400000,1970,1,1,0,17,39,0,-0.026311,-0.009577,9.800076,-0.003962,0.000606,0.000802,0.569143,0.320212,0.104086,-0.033393,0.169722,61.695904
00422,575400000,1970,1,1,0,17,39,0,-0.014938,-0.019728,9.790397,-0.006647,0.002394,0.001264,0.555254,0.323483,0.105498,-0.033239,0.169532,61.699306
00423,585400000,1970,1,1,0,17,39,0,-0.022433,-0.004484,9.823854,-0.006500,0.001531,0.001163,0.558540,0.325802,0.098117,-0.032999,0.168848,61.699619
00424,595400000,1970,1,1,0,17,39,0,-0.026424,0.019098,9.827694,-0.008246,0.003862,0.001350,0.558011,0.329134,0.108308,-0.033758,0.169497,61.699902
00425,605400000,1970,1,1,0,17,39,0,-0.029020,0.010687,9.810230,-0.008474,0.002675,0.001112,0.558389,0.325937,0.100660,-0.034652,0.169468,61.699055
00426,615400000,1970,1,1,0,17,39,0,-0.037529,0.008247,9.795170,-0.005585,0.001451,-0.002048,0.555627,0.326005,0.100430,-0.033892,0.168735,61.697388
00427,625400000,1970,1,1,0,17,39,0,-0.035099,-0.005866,9.789758,-0.008533,0.003811,0.000446,0.555182,0.320691,0.105480,-0.034819,0.169356,61.696663
00428,635400000,1970,1,1,0,17,39,0,-0.031485,-0.015472,9.816144,-0.004847,-0.000932,0.001865,0.558161,0.328999,0.105764,-0.033628,0.167260,61.698151
00429,645400000,1970,1,1,0,17,39,0,-0.035055,-0.015872,9.813256,-0.007045,0.003935,0.001050,0.560851,0.326138,0.105976,-0.033699,0.167952,61.697319
00430,655400000,1970,1,1,0,17,39,0,-0.038211,-0.010210,9.808341,-0.007463,0.001473,0.002963,0.566526,0.325865,0.103893,-0.034009,0.167234,61.698792
00431,665400000,1970,1,1,0,17,39,0,-0.015741,-0.040056,9.800721,-0.008296,0.004821,0.001299,0.558161,0.328999,0.105764,-0.034799,0.168433,61.700249
00432,675400000,1970,1,1,0,17,39,0,-0.028732,-0.024056,9.797448,-0.009267,0.001385,0.001704,0.560929,0.323211,0.103415,-0.036145,0.167663,61.699715
00433,685400000,1970,1,1,0,17,39,0,-0.025850,-0.028177,9.806030,-0.008908,0.004062,-0.001619,0.574957,0.331243,0.104618,-0.037292,0.168428,61.699333
00434,695400000,1970,1,1,0,17,39,0,-0.032653,-0.015828,9.807240,-0.004815,0.005406,0.000749,0.569583,0.331246,0.101616,-0.036086,0.169962,61.700268
00435,705400000,1970,1,1,0,17,39,0,-0.036475,-0.018171,9.802794,-0.006476,0.001191,0.000224,0.558016,0.323414,0.105728,-0.035834,0.169079,61.699989
00436,715400000,1970,1,1,0,17,39,0,-0.022810,-0.009761,9.800485,-0.007369,0.003872,-0.001418,0.546968,0.323689,0.104809,-0.036097,0.169737,61.699142
00437,725400000,1970,1,1,0,17,39,0,-0.029400,0.014256,9.802158,-0.007300,0.004340,0.001485,0.553082,0.334451,0.100255,-0.036316,0.170659,61.698048
00438,735400000,1970,1,1,0,17,39,0,-0.034263,0.000489,9.803522,-0.004064,0.003382,-0.001786,0.544356,0.323623,0.102036,-0.034685,0.171032,61.693146
00439,745400000,1970,1,1,0,17,39,0,-0.033471,-0.007481,9.819673,-0.007334,0.002850,0.000637,0.549802,0.326413,0.105057,-0.034924,0.171103,61.691429
00440,755400000,1970,1,1,0,17,39,0,-0.025321,-0.012129,9.801873,-0.006532,0.002668,0.000994,0.558083,0.331926,0.108326,-0.034704,0.171071,61.690071
00441,765400000,1970,1,1,0,17,39,0,-0.027955,-0.021695,9.812880,-0.009531,0.001738,0.001746,0.561224,0.328660,0.100908,-0.036199,0.170503,61.688923
00442,775400000,1970,1,1,0,17,39,0,-0.027461,-0.019884,9.803514,-0.006481,0.002839,0.002855,0.563619,0.320349,0.103626,-0.035947,0.170567,61.689907
00443,785400000,1970,1,1,0,17,39,0,-0.024468,-0.027197,9.792997,-0.006402,0.003310,0.001775,0.558028,0.311975,0.100569,-0.035647,0.170902,61.692974
00444,795400000,1970,1,1,0,17,39,0,-0.017884,-0.014884,9.807671,-0.005118,0.001157,0.002271,0.569216,0.323004,0.104104,-0.034613,0.170005,61.697674
00445,805400000,1970,1,1,0,17,39,0,-0.026626,-0.011396,9.800436,-0.008249,0.003270,0.002387,0.563680,0.334581,0.108804,-0.035370,0.170315,61.700916
00446,815400000,1970,1,1,0,17,39,0,-0.031797,-0.012694,9.810801,-0.006496,0.001952,0.000706,0.569210,0.328724,0.106684,-0.035128,0.169870,61.698978
00447,825400000,1970,1,1,0,17,39,0,-0.031280,-0.011272,9.814842,-0.007982,0.001327,0.001168,0.550025,0.329070,0.102532,-0.035737,0.169068,61.699902
00448,835400000,1970,1,1,0,17,39,0,-0.032617,-0.002147,9.802834,-0.006936,0.002295,0.001030,0.566453,0.323073,0.103874,-0.035750,0.168817,61.697521
00449,845400000,1970,1,1,0,17,39,0,-0.021852,-0.005204,9.830629,-0.005418,0.005993,-0.000191,0.560929,0.323211,0.103415,-0.034890,0.170687,61.698826
00450,855400000,1970,1,1,0,17,39,0,-0.025821,0.006118,9.813961,-0.007999,0.003620,0.001682,0.561152,0.325868,0.100890,-0.035507,0.171197,61.700233
00451,865400000,1970,1,1,0,17,39,0,-0.034802,0.001210,9.798525,-0.007573,0.000250,-0.002328,0.574734,0.328586,0.107143,-0.035886,0.169778,61.698597
00452,875400000,1970,1,1,0,17,39,0,-0.022270,-0.007673,9.809862,-0.008678,0.003559,0.001982,0.566081,0.320551,0.108943,-0.036891,0.170255,61.700844
00453,885400000,1970,1,1,0,17,39,0,-0.029253,-0.009196,9.809647,-0.006058,0.000773,0.002651,0.560706,0.320553,0.105940,-0.036395,0.169139,61.704231
00454,895400000,1970,1,1,0,17,39,0,-0.036285,-0.021465,9.813242,-0.007911,0.001914,0.001773,0.547262,0.329139,0.102302,-0.036962,0.168672,61.706123
00455,905400000,1970,1,1,0,17,39,0,-0.032431,-0.018137,9.811626,-0.008602,-0.000117,0.005103,0.558311,0.328864,0.103221,-0.037922,0.167042,61.705254
00456,915400000,1970,1,1,0,17,39,0,-0.029631,-0.024094,9.803249,-0.006667,0.005892,0.001863,0.564064,0.325664,0.098576,-0.037777,0.168855,61.704536
00457,925400000,1970,1,1,0,17,39,0,-0.023866,-0.005069,9.802602,-0.005446,0.002823,0.002539,0.555254,0.323483,0.105498,-0.036930,0.168911,61.706066
00458,935400000,1970,1,1,0,17,39,0,-0.032926,-0.006542,9.808172,-0.009967,0.003012,0.000628,0.558462,0.328729,0.100678,-0.038676,0.169074,61.705685
00459,945400000,1970,1,1,0,17,39,0,-0.028045,-0.012649,9.814057,-0.009183,0.002199,0.000477,0.563685,0.328861,0.106224,-0.039975,0.168772,61.704243
00460,955400000,1970,1,1,0,17,39,0,-0.040398,-0.000932,9.825977,-0.006602,0.002440,0.002795,0.569360,0.328589,0.104141,-0.039789,0.168605,61.704975
00461,965400000,1970,1,1,0,17,39,0,-0.036775,0.007457,9.821280,-0.003798,0.004439,0.000659,0.549730,0.323621,0.105038,-0.038000,0.169585,61.705452
00462,975400000,1970,1,1,0,17,39,0,-0.034821,-0.010944,9.809577,-0.006937,0.004962,0.002355,0.560845,0.331857,0.108556,-0.038008,0.170868,61.705147
00463,985400000,1970,1,1,0,17,39,0,-0.034869,-0.014765,9.807323,-0.007321,0.004700,0.002794,0.555326,0.326275,0.105516,-0.038237,0.171997,61.704632
00464,995400000,1970,1,1,0,17,39,0,-0.017863,-0.019549,9.817167,-0.003329,0.004109,-0.001175,0.555766,0.337309,0.103046,-0.036184,0.172788,61.702576
00465,5400000,1970,1,1,0,17,40,0,-0.025542,-0.012321,9.816465,-0.006600,0.005038,0.003488,0.546973,0.317970,0.102229,-0.035999,0.174114,61.700291
00466,15400000,1970,1,1,0,17,40,0,-0.016536,-0.026969,9.810902,-0.007894,0.004846,0.001087,0.544356,0.323623,0.102036,-0.036555,0.175325,61.700718
00467,25400000,1970,1,1,0,17,40,0,-0.016071,-0.029310,9.801186,-0.008568,0.005943,0.001627,0.558239,0.326072,0.103203,-0.037500,0.177167,61.699516
00468,35400000,1970,1,1,0,17,40,0,-0.033358,-0.021036,9.814109,-0.007529,0.002687,0.002851,0.552925,0.340305,0.105377,-0.037842,0.177143,61.700493
00469,45400000,1970,1,1,0,17,40,0,-0.032985,-0.018519,9.810078,-0.008624,0.001742,-0.000123,0.555477,0.326140,0.102973,-0.038823,0.176574,61.695076
00470,55400000,1970,1,1,0,17,40,0,-0.034301,-0.008964,9.839711,-0.006232,0.001736,0.002667,0.552865,0.326074,0.100200,-0.038426,0.176008,61.695740
00471,65400000,1970,1,1,0,17,40,0,-0.034411,-0.013791,9.821801,-0.007183,0.001414,0.000485,0.563469,0.320484,0.106169,-0.038577,0.175254,61.694729
00472,75400000,1970,1,1,0,17,40,0,-0.050427,-0.011881,9.817307,-0.010046,0.001327,0.002619,0.560851,0.326138,0.105976,-0.040364,0.174453,61.698174
00473,85400000,1970,1,1,0,17,40,0,-0.042231,0.003717,9.822747,-0.007220,0.002837,0.001113,0.572128,0.322800,0.101791,-0.040537,0.174515,61.698677
00474,95400000,1970,1,1,0,17,40,0,-0.043580,-0.001536,9.820360,-0.005171,0.001928,0.002570,0.552492,0.323552,0.105268,-0.039532,0.174057,61.702694
00475,105400000,1970,1,1,0,17,40,0,-0.023701,-0.000734,9.816359,-0.009316,-0.000283,0.001584,0.560784,0.317626,0.103378,-0.040904,0.172333,61.702721
00476,115400000,1970,1,1,0,17,40,0,-0.027316,-0.012234,9.798408,-0.007296,0.000904,0.002880,0.552793,0.323282,0.100182,-0.041117,0.171288,61.706490
00477,125400000,1970,1,1,0,17,40,0,-0.016622,-0.001071,9.774104,-0.006509,0.001628,0.001092,0.563685,0.328861,0.106224,-0.040884,0.170658,61.706211
00478,135400000,1970,1,1,0,17,40,0,-0.029615,-0.028080,9.775967,-0.009056,0.002208,0.002673,0.558239,0.326072,0.103203,-0.042106,0.170359,61.707039
00479,145400000,1970,1,1,0,17,40,0,-0.025102,-0.021724,9.827629,-0.007071,0.003339,-0.002970,0.552342,0.323687,0.107811,-0.042199,0.170708,61.704552
00480,155400000,1970,1,1,0,17,40,0,-0.044018,-0.011065,9.834482,-0.004680,0.000695,0.001998,0.563758,0.331653,0.106242,-0.040913,0.169543,61.704628
00481,165400000,1970,1,1,0,17,40,0,-0.032667,-0.019684,9.818981,-0.008842,0.002102,0.002127,0.555777,0.325870,0.097887,-0.042011,0.169186,61.704338
00482,175400000,1970,1,1,0,17,40,0,-0.022468,-0.023355,9.779737,-0.004691,0.004610,0.002421,0.552787,0.329001,0.102761,-0.040731,0.170263,61.704605
00483,185400000,1970,1,1,0,17,40,0,-0.012703,-0.010512,9.775947,-0.007628,0.001710,-0.000093,0.566526,0.325865,0.103893,-0.041140,0.169680,61.702023
00484,195400000,1970,1,1,0,17,40,0,-0.019513,0.003972,9.808590,-0.007533,0.003301,0.000128,0.552787,0.329001,0.102761,-0.041492,0.170011,61.702869
00485,205400000,1970,1,1,0,17,40,0,-0.019589,-0.004496,9.828518,-0.005950,0.001804,0.003918,0.566676,0.325730,0.101349,-0.040934,0.169482,61.702564
00486,215400000,1970,1,1,0,17,40,0,-0.038632,-0.005180,9.818654,-0.007039,0.002838,-0.000888,0.552715,0.326209,0.102743,-0.041007,0.169543,61.702911
00487,225400000,1970,1,1,0,17,40,0,-0.041998,-0.010132,9.801526,-0.007280,0.003862,0.002950,0.555693,0.334517,0.103028,-0.041211,0.170195,61.702900
00488,235400000,1970,1,1,0,17,40,0,-0.028682,-0.007886,9.799223,-0.009230,0.004373,0.003267,0.544723,0.331865,0.099547,-0.042531,0.171136,61.701000
00489,245400000,1970,1,1,0,17,40,0,-0.032348,-0.001147,9.804380,-0.005071,0.003137,0.002044,0.552709,0.331929,0.105323,-0.041470,0.171367,61.697475
00490,255400000,1970,1,1,0,17,40,0,-0.027765,-0.021330,9.820710,-0.005655,0.001179,0.001232,0.552787,0.329001,0.102761,-0.040746,0.170480,61.694942
00491,265400000,1970,1,1,0,17,40,0,-0.024376,-0.022951,9.810914,-0.008029,0.005442,-0.000012,0.546817,0.323824,0.107352,-0.041383,0.172034,61.692722
00492,275400000,1970,1,1,0,17,40,0,-0.026174,-0.024058,9.798084,-0.003685,0.006521,0.000887,0.561224,0.328660,0.100908,-0.039529,0.174207,61.691677
00493,285400000,1970,1,1,0,17,40,0,-0.020668,-0.029585,9.793767,-0.008959,0.003238,0.000508,0.563541,0.323277,0.106188,-0.040699,0.174499,61.691360
00494,295400000,1970,1,1,0,17,40,0,-0.035167,-0.016613,9.800676,-0.007439,0.002238,0.000949,0.558462,0.328729,0.100678,-0.040995,0.174218,61.693405
00495,305400000,1970,1,1,0,17,40,0,-0.023035,-0.028971,9.832292,-0.004708,0.005228,0.000587,0.564136,0.328456,0.098594,-0.039727,0.175650,61.692566
00496,315400000,1970,1,1,0,17,40,0,-0.014856,-0.017700,9.809381,-0.007167,0.001845,0.001530,0.555332,0.320556,0.102937,-0.039865,0.175143,61.693363
00497,325400000,1970,1,1,0,17,40,0,-0.025487,-0.005741,9.806259,-0.005814,0.001520,0.001590,0.557872,0.317830,0.105692,-0.039231,0.174452,61.695194
00498,335400000,1970,1,1,0,17,40,0,-0.037190,0.005512,9.786277,-0.007603,0.003133,0.001504,0.563685,0.328861,0.106224,-0.039619,0.174686,61.698303
00499,345400000,1970,1,1,0,17,40,0,-0.024442,-0.014864,9.792871,-0.009698,0.000801,0.002015,0.563908,0.331518,0.103699,-0.041207,0.173582,61.699032
00500,355400000,1970,1,1,0,17,40,0,-0.034849,-0.000889,9.820841,-0.007881,0.002002,0.000497,0.563613,0.326069,0.106206,-0.041759,0.173165,61.698048
00501,365400000,1970,1,1,0,17,40,0,-0.023491,-0.005751,9.822899,-0.006853,0.005833,-0.000630,0.561001,0.326003,0.103433,-0.041721,0.174941,61.698212
00502,375400000,1970,1,1,0,17,40,0,-0.014960,-0.030185,9.814017,-0.009315,0.005767,0.002741,0.560995,0.331722,0.106012,-0.043091,0.176685,61.699783
00503,385400000,1970,1,1,0,17,40,0,-0.023705,-0.023801,9.797281,-0.008147,0.003637,-0.000764,0.566075,0.326270,0.111522,-0.043799,0.177202,61.697392
00504,395400000,1970,1,1,0,17,40,0,-0.015197,-0.031580,9.807958,-0.008108,0.001331,-0.000368,0.560634,0.317761,0.105921,-0.044482,0.176401,61.698074
00505,405400000,1970,1,1,0,17,40,0,-0.029102,-0.030728,9.810023,-0.005561,0.004004,0.001430,0.561380,0.322806,0.095785,-0.043699,0.177134,61.701630
00506,415400000,1970,1,1,0,17,40,0,-0.035974,-0.010670,9.817150,-0.004804,-0.001109,-0.001771,0.563613,0.326069,0.106206,-0.042493,0.174934,61.701660
00507,425400000,1970,1,1,0,17,40,0,-0.039309,-0.009306,9.821733,-0.008593,0.003395,-0.000948,0.554953,0.323753,0.110585,-0.043455,0.175316,61.701397
00508,435400000,1970,1,1,0,17,40,0,-0.033921,-0.016376,9.795119,-0.007626,0.003509,-0.000061,0.566760,0.317084,0.096208,-0.043862,0.175762,61.700752
00509,445400000,1970,1,1,0,17,40,0,-0.028590,-0.005947,9.797432,-0.007479,0.003042,-0.000589,0.558323,0.317425,0.098062,-0.044184,0.175944,61.704422
00510,455400000,1970,1,1,0,17,40,0,-0.035540,0.003917,9.826042,-0.004845,0.002908,0.000450,0.558011,0.329134,0.108308,-0.042995,0.176046,61.706684
00511,465400000,1970,1,1,0,17,40,0,-0.029431,-0.010621,9.814753,-0.006764,0.004332,0.001806,0.556000,0.328528,0.095362,-0.042907,0.176966,61.705597
00512,475400000,1970,1,1,0,17,40,0,-0.033244,0.002178,9.804247,-0.008693,0.001780,0.000689,0.552414,0.326479,0.107830,-0.043922,0.176421,61.703712
00513,485400000,1970,1,1,0,17,40,0,-0.039918,-0.012553,9.800484,-0.007903,0.000609,0.002931,0.560995,0.331722,0.106012,-0.044483,0.175205,61.703171
00514,495400000,1970,1,1,0,17,40,0,-0.041532,-0.017459,9.800711,-0.007566,0.003070,0.001051,0.552492,0.323552,0.105268,-0.044854,0.175398,61.701500
00515,505400000,1970,1,1,0,17,40,0,-0.019758,-0.031875,9.823083,-0.008092,0.001846,0.001017,0.560779,0.323346,0.105958,-0.045523,0.174893,61.700985
00516,515400000,1970,1,1,0,17,40,0,-0.019213,-0.028163,9.822848,-0.004076,0.002338,0.003393,0.564064,0.325664,0.098576,-0.043888,0.174671,61.703560
00517,525400000,1970,1,1,0,17,40,0,-0.024144,-0.027724,9.810207,-0.006750,0.004187,-0.000477,0.568698,0.314897,0.109136,-0.043797,0.175508,61.703671
00518,535400000,1970,1,1,0,17,40,0,-0.027000,-0.022725,9.796993,-0.006609,0.000198,-0.000600,0.563541,0.323277,0.106188,-0.043622,0.174060,61.708328
00519,545400000,1970,1,1,0,17,40,0,-0.035460,-0.006885,9.800306,-0.005413,0.002954,-0.000566,0.566231,0.320416,0.106399,-0.042760,0.174190,61.708916
00520,555400000,1970,1,1,0,17,40,0,-0.024597,-0.001777,9.816352,-0.006027,0.003486,0.002687,0.563613,0.326069,0.106206,-0.042242,0.174625,61.712822
00521,565400000,1970,1,1,0,17,40,0,-0.034272,0.003001,9.832708,-0.007029,0.004626,0.000817,0.558100,0.314768,0.100587,-0.042306,0.175712,61.713089
00522,575400000,1970,1,1,0,17,40,0,-0.039730,0.006432,9.815310,-0.005414,0.004834,0.001265,0.558389,0.325937,0.100660,-0.041444,0.176921,61.716320
00523,585400000,1970,1,1,0,17,40,0,-0.045328,0.001160,9.799574,-0.005318,0.003766,0.000771,0.560779,0.323346,0.105958,-0.040528,0.177516,61.715424
00524,595400000,1970,1,1,0,17,40,0,-0.032751,-0.000569,9.797374,-0.005880,0.002514,0.003005,0.563842,0.323007,0.101101,-0.039929,0.177393,61.717148
00525,605400000,1970,1,1,0,17,40,0,-0.033260,-0.011231,9.812446,-0.002914,0.003517,0.000484,0.552720,0.320490,0.100164,-0.037631,0.177846,61.718143
00526,615400000,1970,1,1,0,17,40,0,-0.043868,-0.013982,9.815034,-0.008129,0.003099,0.000096,0.549730,0.323621,0.105038,-0.038324,0.178056,61.717468
00527,625400000,1970,1,1,0,17,40,0,-0.029968,-0.021201,9.808583,-0.009137,0.001554,0.003275,0.558016,0.323414,0.105728,-0.039588,0.177383,61.717010
00528,635400000,1970,1,1,0,17,40,0,-0.034828,-0.017214,9.801747,-0.007660,0.003145,0.003475,0.561296,0.331452,0.100926,-0.040008,0.177620,61.718410
00529,645400000,1970,1,1,0,17,40,0,-0.010796,-0.030461,9.792829,-0.006648,-0.000032,0.002090,0.566303,0.323208,0.106418,-0.039847,0.176036,61.717003
00530,655400000,1970,1,1,0,17,40,0,-0.023816,-0.011429,9.807470,-0.007872,0.002490,0.001665,0.549946,0.331997,0.105093,-0.040390,0.175900,61.719093
00531,665400000,1970,1,1,0,17,40,0,-0.008886,-0.010052,9.816928,-0.008270,0.005279,0.001585,0.555615,0.337444,0.105589,-0.041161,0.177360,61.714996
00532,675400000,1970,1,1,0,17,40,0,-0.045145,-0.003511,9.817970,-0.006821,0.002945,0.000174,0.563685,0.328861,0.106224,-0.041107,0.177480,61.709591
00533,685400000,1970,1,1,0,17,40,0,-0.030995,0.001155,9.790510,-0.007176,0.000438,0.002023,0.566598,0.328657,0.103911,-0.041250,0.176168,61.709770
00534,695400000,1970,1,1,0,17,40,0,-0.031183,-0.004433,9.810212,-0.003310,0.001683,-0.001250,0.549730,0.323621,0.105038,-0.039184,0.175571,61.708675
00535,705400000,1970,1,1,0,17,40,0,-0.030067,-0.007890,9.814143,-0.005619,0.003601,0.000072,0.555922,0.331455,0.097923,-0.038440,0.176070,61.706860
00536,715400000,1970,1,1,0,17,40,0,-0.022532,-0.002765,9.818992,-0.006182,0.001672,0.003668,0.544272,0.332270,0.107177,-0.038012,0.175462,61.705719
00537,725400000,1970,1,1,0,17,40,0,-0.028624,-0.020023,9.811923,-0.006785,0.003765,0.003090,0.550025,0.329070,0.102532,-0.037932,0.176054,61.701916
00538,735400000,1970,1,1,0,17,40,0,-0.043120,-0.013994,9.811361,-0.007242,0.001095,0.001317,0.552636,0.329136,0.105305,-0.038115,0.175116,61.699387
00539,745400000,1970,1,1,0,17,40,0,-0.039393,-0.023123,9.795282,-0.005946,0.002189,-0.001356,0.566754,0.322803,0.098788,-0.037562,0.174805,61.695911
00540,755400000,1970,1,1,0,17,40,0,-0.018189,-0.028920,9.803759,-0.005556,-0.000082,0.001852,0.564136,0.328456,0.098594,-0.036778,0.173198,61.699020
00541,765400000,1970,1,1,0,17,40,0,-0.030022,-0.021857,9.812138,-0.007156,0.001311,0.001800,0.569354,0.334308,0.106720,-0.036911,0.172385,61.699642
00542,775400000,1970,1,1,0,17,40,0,-0.022320,-0.019316,9.814141,-0.007715,0.001293,0.001849,0.552486,0.329271,0.107848,-0.037361,0.171562,61.699257
00543,785400000,1970,1,1,0,17,40,0,-0.033996,0.006638,9.809813,-0.007687,0.003503,-0.000859,0.566075,0.326270,0.111522,-0.037806,0.172007,61.695965
00544,795400000,1970,1,1,0,17,40,0,-0.021215,-0.030278,9.821159,-0.007621,0.001340,0.002833,0.555772,0.331590,0.100466,-0.038206,0.171213,61.698341
00545,805400000,1970,1,1,0,17,40,0,-0.025052,-0.018775,9.806864,-0.006896,0.001556,0.001969,0.571900,0.325863,0.106895,-0.038190,0.170540,61.696499
00546,815400000,1970,1,1,0,17,40,0,-0.025984,-0.005012,9.815027,-0.010124,0.000544,0.002785,0.552636,0.329136,0.105305,-0.040019,0.169289,61.700104
00547,825400000,1970,1,1,0,17,40,0,-0.016457,0.002294,9.808863,-0.007764,0.001726,0.001925,0.569059,0.328858,0.109227,-0.040499,0.168713,61.698383
00548,835400000,1970,1,1,0,17,40,0,-0.024920,-0.005744,9.805079,-0.007012,0.001825,-0.000724,0.547407,0.334723,0.102338,-0.040553,0.168192,61.698425
00549,845400000,1970,1,1,0,17,40,0,-0.028358,-0.013606,9.805751,-0.006328,0.003533,0.001590,0.558016,0.323414,0.105728,-0.040213,0.168651,61.693707
00550,855400000,1970,1,1,0,17,40,0,-0.032796,-0.011115,9.807942,-0.008472,0.002520,0.001230,0.561152,0.325868,0.100890,-0.041099,0.168531,61.694790
00551,865400000,1970,1,1,0,17,40,0,-0.030511,-0.018805,9.813675,-0.009232,0.002875,-0.001239,0.568909,0.328993,0.111770,-0.042427,0.168613,61.694168
00552,875400000,1970,1,1,0,17,40,0,-0.034166,-0.025505,9.820158,-0.006622,0.003754,0.000494,0.568837,0.326201,0.111752,-0.042254,0.169200,61.694885
00553,885400000,1970,1,1,0,17,40,0,-0.037125,-0.023229,9.794253,-0.003222,0.003579,0.003349,0.555332,0.320556,0.102937,-0.040127,0.169689,61.698166
00554,895400000,1970,1,1,0,17,40,0,-0.039124,-0.011590,9.800623,-0.007504,0.005036,0.001049,0.560773,0.329065,0.108537,-0.040458,0.171010,61.699402
00555,905400000,1970,1,1,0,17,40,0,-0.032851,-0.000824,9.810664,-0.008539,0.003558,0.001722,0.557938,0.326341,0.108289,-0.041380,0.171482,61.699127
00556,915400000,1970,1,1,0,17,40,0,-0.031973,-0.012795,9.810086,-0.005769,0.001614,0.003106,0.558534,0.331521,0.100696,-0.040716,0.170843,61.700035
00557,925400000,1970,1,1,0,17,40,0,-0.029775,0.000784,9.802516,-0.006332,0.004211,-0.001042,0.563685,0.328861,0.106224,-0.040381,0.171691,61.696964
00558,935400000,1970,1,1,0,17,40,0,-0.034545,0.006803,9.811941,-0.004201,0.002399,-0.000065,0.550019,0.334790,0.105111,-0.038824,0.171502,61.696327
00559,945400000,1970,1,1,0,17,40,0,-0.032853,-0.016301,9.806282,-0.006472,0.002641,0.000927,0.555404,0.323348,0.102955,-0.038569,0.171449,61.691818
00560,955400000,1970,1,1,0,17,40,0,-0.036718,-0.003089,9.801351,-0.005736,-0.000030,-0.000761,0.552865,0.326074,0.100200,-0.037893,0.169866,61.691307
00561,965400000,1970,1,1,0,17,40,0,-0.024198,-0.010643,9.820518,-0.007180,0.002993,0.002537,0.552937,0.328866,0.100218,-0.038038,0.170016,61.691280
00562,975400000,1970,1,1,0,17,40,0,-0.025572,-0.007987,9.830464,-0.005622,0.004402,-0.000780,0.549657,0.320828,0.105020,-0.037295,0.170975,61.688499
00563,985400000,1970,1,1,0,17,40,0,-0.009214,-0.024405,9.806849,-0.007234,0.002040,0.001093,0.572116,0.334239,0.106950,-0.037472,0.170581,61.688923
00564,995400000,1970,1,1,0,17,40,0,-0.041520,-0.005678,9.802005,-0.005721,0.003437,0.003005,0.563908,0.331518,0.103699,-0.036778,0.170988,61.690052
00565,5400000,1970,1,1,0,17,41,0,-0.030119,-0.032294,9.809299,-0.005387,0.000419,0.000123,0.563463,0.326204,0.108749,-0.035898,0.169664,61.688938
00566,15400000,1970,1,1,0,17,41,0,-0.026628,-0.021273,9.812063,-0.006552,0.003846,0.000302,0.558389,0.325937,0.100660,-0.035685,0.170303,61.689598
00567,25400000,1970,1,1,0,17,41,0,-0.030286,-0.036015,9.801943,-0.007080,0.002117,0.001083,0.569143,0.320212,0.104086,-0.035775,0.169954,61.689838
00568,35400000,1970,1,1,0,17,41,0,-0.029122,-0.013890,9.812853,-0.006758,0.000431,0.001535,0.560712,0.314834,0.103360,-0.035678,0.168640,61.694130
00569,45400000,1970,1,1,0,17,41,0,-0.033837,-0.002946,9.803055,-0.006749,0.001707,-0.000134,0.552414,0.326479,0.107830,-0.035579,0.168054,61.697483
00570,55400000,1970,1,1,0,17,41,0,-0.023117,-0.007392,9.812814,-0.007913,0.005324,0.001920,0.560923,0.328930,0.105994,-0.036144,0.169540,61.696621
00571,65400000,1970,1,1,0,17,41,0,-0.016037,0.000359,9.811124,-0.005648,0.000709,-0.003239,0.566893,0.334107,0.101404,-0.035421,0.168380,61.693577
00572,75400000,1970,1,1,0,17,41,0,-0.034044,-0.004738,9.814801,-0.006914,0.001956,-0.000603,0.552263,0.326614,0.110373,-0.035418,0.167937,61.691490
00573,85400000,1970,1,1,0,17,41,0,-0.032665,-0.015170,9.803437,-0.006767,0.003333,0.002325,0.566086,0.314831,0.106363,-0.035327,0.168282,61.690884
00574,95400000,1970,1,1,0,17,41,0,-0.023483,-0.019761,9.805110,-0.007284,0.001225,0.001326,0.566303,0.323208,0.106418,-0.035531,0.167421,61.696014
00575,105400000,1970,1,1,0,17,41,0,-0.016319,-0.025632,9.797618,-0.005804,0.003003,0.002511,0.558462,0.328729,0.100678,-0.034888,0.167581,61.698971
00576,115400000,1970,1,1,0,17,41,0,-0.013026,-0.023572,9.803004,-0.006843,0.002617,0.000862,0.563613,0.326069,0.106206,-0.034843,0.167518,61.697742
00577,125400000,1970,1,1,0,17,41,0,-0.023207,-0.012451,9.816852,-0.007487,0.003668,0.001464,0.561073,0.328795,0.103451,-0.035166,0.168053,61.698650
00578,135400000,1970,1,1,0,17,41,0,-0.018556,-0.027112,9.803875,-0.006231,0.002534,0.000688,0.560851,0.326138,0.105976,-0.034768,0.167940,61.697777
00579,145400000,1970,1,1,0,17,41,0,-0.044876,-0.017586,9.807663,-0.006434,0.005304,0.004184,0.563836,0.328726,0.103681,-0.034481,0.169415,61.699688
00580,155400000,1970,1,1,0,17,41,0,-0.028811,-0.018662,9.783442,-0.005692,0.003886,0.002034,0.563685,0.328861,0.106224,-0.033773,0.170078,61.700085
00581,165400000,1970,1,1,0,17,41,0,-0.033244,-0.008288,9.817663,-0.008549,0.003889,0.000824,0.555549,0.328933,0.102991,-0.034704,0.170741,61.699730
00582,175400000,1970,1,1,0,17,41,0,-0.024534,0.007930,9.811363,-0.005161,0.004618,-0.000944,0.560995,0.331722,0.106012,-0.033701,0.171823,61.696873
00583,185400000,1970,1,1,0,17,41,0,-0.030856,0.004380,9.822192,-0.007285,0.003272,-0.000647,0.560929,0.323211,0.103415,-0.033911,0.172131,61.694366
00584,195400000,1970,1,1,0,17,41,0,-0.015350,-0.002500,9.803189,-0.007614,0.000395,0.000601,0.557860,0.329269,0.110851,-0.034308,0.170797,61.695271
00585,205400000,1970,1,1,0,17,41,0,-0.035715,-0.009957,9.790698,-0.006299,0.003333,-0.000132,0.555176,0.326410,0.108060,-0.033951,0.171140,61.693302
00586,215400000,1970,1,1,0,17,41,0,-0.039737,-0.013827,9.806068,-0.008132,0.000475,-0.000431,0.541371,0.321035,0.104331,-0.034646,0.169846,61.691635
00587,225400000,1970,1,1,0,17,41,0,-0.032649,-0.026745,9.818037,-0.006930,0.002837,0.001876,0.553232,0.334316,0.097711,-0.034647,0.169905,61.690571
00588,235400000,1970,1,1,0,17,41,0,-0.028214,-0.010092,9.818685,-0.006041,0.002396,0.001658,0.550247,0.331727,0.100007,-0.034139,0.169713,61.687382
00589,245400000,1970,1,1,0,17,41,0,-0.025083,-0.031095,9.808179,-0.006475,0.004020,0.001144,0.552937,0.328866,0.100218,-0.033884,0.170450,61.684383
00590,255400000,1970,1,1,0,17,41,0,-0.020468,-0.024946,9.801832,-0.006119,0.002905,0.003654,0.563685,0.328861,0.106224,-0.033422,0.170553,61.684273
00591,265400000,1970,1,1,0,17,41,0,-0.030218,-0.013511,9.800504,-0.005891,0.003424,0.001958,0.558095,0.320487,0.103167,-0.032831,0.170950,61.685059
00592,275400000,1970,1,1,0,17,41,0,-0.030399,-0.016539,9.821387,-0.006784,0.003415,0.000273,0.558161,0.328999,0.105764,-0.032751,0.171342,61.686546
00593,285400000,1970,1,1,0,17,41,0,-0.018856,-0.017003,9.816322,-0.004845,0.005770,0.000829,0.563986,0.328591,0.101138,-0.031559,0.173083,61.685619
00594,295400000,1970,1,1,0,17,41,0,-0.042880,0.016791,9.805287,-0.008176,0.002778,-0.000264,0.558089,0.326207,0.105746,-0.032277,0.173109,61.685230
00595,305400000,1970,1,1,0,17,41,0,-0.027749,-0.006236,9.788914,-0.008384,0.004016,0.002167,0.558089,0.326207,0.105746,-0.033111,0.173846,61.685951
00596,315400000,1970,1,1,0,17,41,0,-0.036791,0.004128,9.792333,-0.006485,0.001575,0.001102,0.555699,0.328798,0.100448,-0.032859,0.173185,61.686020
00597,325400000,1970,1,1,0,17,41,0,-0.023923,-0.011272,9.811261,-0.004798,0.000895,0.000713,0.555555,0.323213,0.100412,-0.031642,0.172131,61.684654
00598,335400000,1970,1,1,0,17,41,0,-0.031730,-0.011699,9.817920,-0.005820,0.000307,0.002610,0.563613,0.326069,0.106206,-0.031005,0.170741,61.686138
00599,345400000,1970,1,1,0,17,41,0,-0.027266,-0.019800,9.815972,-0.006719,0.003922,0.003257,0.561079,0.323076,0.100871,-0.030884,0.171425,61.688488
00600,355400000,1970,1,1,0,17,41,0,-0.033521,-0.030347,9.796314,-0.005029,0.003494,0.001318,0.564064,0.325664,0.098576,-0.029796,0.171863,61.690174
00601,365400000,1970,1,1,0,17,41,0,-0.029208,-0.005015,9.796359,-0.006451,0.000625,0.000765,0.563769,0.320215,0.101083,-0.029525,0.170656,61.691212
00602,375400000,1970,1,1,0,17,41,0,-0.029181,-0.014620,9.804912,-0.005913,0.003443,0.002319,0.550247,0.331727,0.100007,-0.028944,0.171066,61.694790
00603,385400000,1970,1,1,0,17,41,0,-0.024510,-0.011749,9.811852,-0.007799,0.006429,0.002692,0.555477,0.326140,0.102973,-0.029444,0.173183,61.692310
00604,395400000,1970,1,1,0,17,41,0,-0.039228,-0.010676,9.806072,-0.009406,0.003629,0.000671,0.558317,0.323144,0.100642,-0.030866,0.173698,61.691559
00605,405400000,1970,1,1,0,17,41,0,-0.026836,-0.020219,9.807558,-0.005586,0.004101,-0.000782,0.555104,0.323618,0.108041,-0.030106,0.174482,61.691486
00606,415400000,1970,1,1,0,17,41,0,-0.038449,-0.013449,9.803473,-0.004958,0.000327,0.002091,0.563842,0.323007,0.101101,-0.028977,0.173106,61.692310
00607,425400000,1970,1,1,0,17,41,0,-0.026682,-0.006665,9.800074,-0.006192,0.002829,0.000247,0.558233,0.331791,0.105783,-0.028560,0.173163,61.693848
00608,435400000,1970,1,1,0,17,41,0,-0.033862,0.001171,9.805545,-0.005718,0.005065,0.001979,0.560851,0.326138,0.105976,-0.027870,0.174499,61.692360
00609,445400000,1970,1,1,0,17,41,0,-0.016469,-0.008102,9.814925,-0.007695,0.003530,0.001856,0.560851,0.326138,0.105976,-0.028307,0.174957,61.693218
00610,455400000,1970,1,1,0,17,41,0,-0.030800,-0.005855,9.784830,-0.006147,0.002941,0.003498,0.558167,0.323279,0.103185,-0.027861,0.175079,61.695004
00611,465400000,1970,1,1,0,17,41,0,-0.043028,-0.016452,9.808044,-0.008040,0.003456,-0.000128,0.552715,0.326209,0.102743,-0.028499,0.175494,61.695152
00612,475400000,1970,1,1,0,17,41,0,-0.029366,-0.023099,9.802902,-0.006008,0.005088,0.000242,0.560857,0.320418,0.103396,-0.027977,0.176843,61.693447
00613,485400000,1970,1,1,0,17,41,0,-0.036827,-0.003458,9.815001,-0.008145,0.002925,0.000501,0.560706,0.320553,0.105940,-0.028679,0.176955,61.695496
00614,495400000,1970,1,1,0,17,41,0,-0.050575,0.002129,9.820022,-0.006420,0.000114,0.000845,0.555410,0.317629,0.100375,-0.028390,0.175458,61.697578
00615,505400000,1970,1,1,0,17,41,0,-0.018921,-0.020366,9.805888,-0.006551,0.003984,0.002240,0.560701,0.326273,0.108519,-0.028176,0.176176,61.700371
00616,515400000,1970,1,1,0,17,41,0,-0.037270,-0.006656,9.797676,-0.008373,0.004430,0.000412,0.549880,0.323486,0.102495,-0.029007,0.177149,61.700146
00617,525400000,1970,1,1,0,17,41,0,-0.023973,-0.010010,9.808301,-0.006922,0.002899,-0.001114,0.571972,0.328655,0.106914,-0.029006,0.177244,61.697811
00618,535400000,1970,1,1,0,17,41,0,-0.028862,0.006188,9.815692,-0.008161,0.002754,0.002912,0.563613,0.326069,0.106206,-0.029710,0.177258,61.700439
00619,545400000,1970,1,1,0,17,41,0,-0.028589,-0.001473,9.809779,-0.008519,0.003386,0.002937,0.558317,0.323144,0.100642,-0.030621,0.177634,61.702263
00620,555400000,1970,1,1,0,17,41,0,-0.035585,-0.013455,9.803518,-0.009179,0.002822,-0.002215,0.566303,0.323208,0.106418,-0.031917,0.177685,61.701054
00621,565400000,1970,1,1,0,17,41,0,-0.032754,-0.014406,9.791331,-0.004709,0.001385,0.001879,0.552570,0.320625,0.102707,-0.030646,0.176918,61.703815
00622,575400000,1970,1,1,0,17,41,0,-0.034178,-0.017374,9.805677,-0.008947,0.004134,0.001355,0.563613,0.326069,0.106206,-0.031804,0.177724,61.704266
00623,585400000,1970,1,1,0,17,41,0,-0.026794,-0.021496,9.827130,-0.010465,0.002457,0.000827,0.555326,0.326275,0.105516,-0.033831,0.177567,61.704762
00624,595400000,1970,1,1,0,17,41,0,-0.016241,-0.025364,9.817074,-0.007449,0.002578,0.003143,0.555332,0.320556,0.102937,-0.034128,0.177480,61.704777
00625,605400000,1970,1,1,0,17,41,0,-0.047756,-0.024496,9.804424,-0.004607,0.004210,-0.000694,0.555176,0.326410,0.108060,-0.032807,0.178328,61.704628
00626,615400000,1970,1,1,0,17,41,0,-0.021301,-0.021893,9.810834,-0.008767,0.001258,0.001659,0.564058,0.331383,0.101156,-0.033861,0.177484,61.703705
00627,625400000,1970,1,1,0,17,41,0,-0.025634,-0.023073,9.818491,-0.006762,0.002246,0.001942,0.561146,0.331587,0.103469,-0.033766,0.177205,61.703022
00628,635400000,1970,1,1,0,17,41,0,-0.029194,-0.013515,9.821516,-0.007701,0.000588,0.000036,0.560779,0.323346,0.105958,-0.034214,0.175977,61.700584
00629,645400000,1970,1,1,0,17,41,0,-0.029869,-0.010089,9.822811,-0.007188,0.002641,0.000203,0.563980,0.334311,0.103717,-0.034365,0.175926,61.701225
00630,655400000,1970,1,1,0,17,41,0,-0.020097,0.002975,9.819020,-0.007118,0.003397,0.000729,0.552709,0.331929,0.105323,-0.034478,0.176308,61.698792
00631,665400000,1970,1,1,0,17,41,0,-0.029562,-0.014910,9.789715,-0.004840,0.001754,0.002488,0.558462,0.328729,0.100678,-0.033283,0.175749,61.695946
00632,675400000,1970,1,1,0,17,41,0,-0.037782,0.000576,9.810596,-0.005097,0.000931,0.001055,0.563541,0.323277,0.106188,-0.032237,0.174715,61.694752
00633,685400000,1970,1,1,0,17,41,0,-0.022872,-0.008019,9.823854,-0.007023,0.002592,0.001736,0.558239,0.326072,0.103203,-0.032293,0.174636,61.697037
00634,695400000,1970,1,1,0,17,41,0,-0.030427,-0.008481,9.810341,-0.005384,0.000846,0.000243,0.555699,0.328798,0.100448,-0.031411,0.173557,61.696266
00635,705400000,1970,1,1,0,17,41,0,-0.020504,-0.019715,9.825912,-0.005334,0.002684,-0.000037,0.558311,0.328864,0.103221,-0.030501,0.173529,61.693806
00636,715400000,1970,1,1,0,17,41,0,-0.027571,-0.014117,9.800776,-0.009066,0.000609,-0.000321,0.550175,0.328935,0.099988,-0.031728,0.172314,61.691738
00637,725400000,1970,1,1,0,17,41,0,-0.009595,-0.018012,9.798053,-0.007291,0.002684,0.000675,0.555032,0.320826,0.108023,-0.031939,0.172284,61.688541
00638,735400000,1970,1,1,0,17,41,0,-0.032578,-0.013305,9.803317,-0.007134,0.001852,0.000631,0.552865,0.326074,0.100200,-0.032057,0.171782,61.689468
00639,745400000,1970,1,1,0,17,41,0,-0.028035,-0.010032,9.815835,-0.006957,0.000941,-0.000877,0.566682,0.320011,0.098770,-0.032078,0.170754,61.687057
00640,755400000,1970,1,1,0,17,41,0,-0.027747,-0.007136,9.807176,-0.006949,0.003788,0.002085,0.561079,0.323076,0.100871,-0.032088,0.171364,61.691589
00641,765400000,1970,1,1,0,17,41,0,-0.024291,-0.007469,9.805556,-0.008640,0.001034,0.001441,0.566219,0.331855,0.111558,-0.033069,0.170392,61.693287
00642,775400000,1970,1,1,0,17,41,0,-0.031739,-0.012197,9.798701,-0.006469,0.000519,-0.000205,0.555399,0.329068,0.105535,-0.032809,0.169124,61.691799
00643,785400000,1970,1,1,0,17,41,0,-0.028409,-0.008194,9.804088,-0.006524,0.003109,0.001543,0.566754,0.322803,0.098788,-0.032580,0.169339,61.690079
00644,795400000,1970,1,1,0,17,41,0,-0.031561,-0.019994,9.812119,-0.006525,0.002406,0.002770,0.558456,0.334448,0.103258,-0.032347,0.169153,61.693874
00645,805400000,1970,1,1,0,17,41,0,-0.038236,-0.008282,9.801935,-0.005821,0.001489,0.002446,0.571833,0.317351,0.104298,-0.031712,0.168440,61.691196
00646,815400000,1970,1,1,0,17,41,0,-0.027846,-0.023008,9.800543,-0.006118,0.003502,0.000525,0.555549,0.328933,0.102991,-0.031251,0.168885,61.696983
00647,825400000,1970,1,1,0,17,41,0,-0.014723,-0.020083,9.802382,-0.006788,0.002852,-0.000563,0.558462,0.328729,0.100678,-0.031174,0.168953,61.693943
00648,835400000,1970,1,1,0,17,41,0,-0.021446,-0.034640,9.816891,-0.002986,0.002902,0.000127,0.569288,0.325796,0.104122,-0.028920,0.169050,61.692108
00649,845400000,1970,1,1,0,17,41,0,-0.021988,-0.016787,9.824351,-0.007668,0.005515,0.002278,0.563391,0.323412,0.108731,-0.029343,0.170646,61.695023
00650,855400000,1970,1,1,0,17,41,0,-0.032771,-0.018273,9.811745,-0.009407,0.002271,0.001903,0.558389,0.325937,0.100660,-0.030764,0.170383,61.697296
00651,865400000,1970,1,1,0,17,41,0,-0.029618,-0.006905,9.803117,-0.007332,0.002491,-0.001889,0.552564,0.326344,0.105286,-0.031003,0.170245,61.695236
00652,875400000,1970,1,1,0,17,41,0,-0.035837,-0.013235,9.796631,-0.009175,0.004452,0.003025,0.563619,0.320349,0.103626,-0.032287,0.171230,61.694565
00653,885400000,1970,1,1,0,17,41,0,-0.024750,-0.008298,9.806739,-0.007618,-0.000667,0.002873,0.552558,0.332063,0.107866,-0.032678,0.169286,61.698650
00654,895400000,1970,1,1,0,17,41,0,-0.022985,-0.003456,9.808309,-0.008286,0.002756,0.000862,0.558606,0.334313,0.100714,-0.033457,0.169298,61.694427
00655,905400000,1970,1,1,0,17,41,0,-0.033541,-0.001246,9.813383,-0.006098,0.002886,0.001403,0.552931,0.334586,0.102798,-0.032985,0.169385,61.691132
00656,915400000,1970,1,1,0,17,41,0,-0.034671,-0.008289,9.811713,-0.007226,0.003317,0.002809,0.560929,0.323211,0.103415,-0.033155,0.169718,61.687366
00657,925400000,1970,1,1,0,17,41,0,-0.011303,-0.013966,9.807171,-0.007443,0.004456,0.000472,0.557866,0.323549,0.108271,-0.033454,0.170706,61.688587
00658,935400000,1970,1,1,0,17,41,0,-0.024449,-0.023018,9.801656,-0.007192,0.001311,0.003530,0.563463,0.326204,0.108749,-0.033601,0.169894,61.690746
00659,945400000,1970,1,1,0,17,41,0,-0.020944,-0.035705,9.814166,-0.005695,0.001612,0.003460,0.560923,0.328930,0.105994,-0.032892,0.169255,61.693016
00660,955400000,1970,1,1,0,17,41,0,-0.033773,-0.021741,9.804849,-0.007490,0.002074,0.000443,0.552564,0.326344,0.105286,-0.033214,0.168876,61.691860
00661,965400000,1970,1,1,0,17,41,0,-0.025147,-0.017869,9.788597,-0.007695,0.002287,0.003962,0.552263,0.326614,0.110373,-0.033652,0.168621,61.691948
00662,975400000,1970,1,1,0,17,41,0,-0.028973,-0.011894,9.787943,-0.008283,0.006143,0.001510,0.558089,0.326207,0.105746,-0.034432,0.170574,61.690475
00663,985400000,1970,1,1,0,17,41,0,-0.021721,-0.013299,9.801332,-0.009025,0.002923,0.002005,0.566604,0.322938,0.101331,-0.035633,0.170685,61.690804
00664,995400000,1970,1,1,0,17,41,0,-0.020574,-0.018103,9.821760,-0.008114,0.003857,0.001111,0.560784,0.317626,0.103378,-0.036314,0.171331,61.693745
00665,5400000,1970,1,1,0,17,42,0,-0.035755,-0.011972,9.823797,-0.007611,0.001147,0.001599,0.563914,0.325799,0.101119,-0.036704,0.170422,61.697701
00666,15400000,1970,1,1,0,17,42,0,-0.031004,0.000176,9.817684,-0.006666,0.001704,0.003121,0.563535,0.328996,0.108767,-0.036550,0.169834,61.699902
00667,25400000,1970,1,1,0,17,42,0,-0.022114,-0.006803,9.807728,-0.006774,0.003070,0.001986,0.552564,0.326344,0.105286,-0.036464,0.170028,61.700066
00668,35400000,1970,1,1,0,17,42,0,-0.027923,0.005276,9.814161,-0.008479,0.002374,0.000481,0.566742,0.334242,0.103947,-0.037356,0.169824,61.697952
00669,45400000,1970,1,1,0,17,42,0,-0.035656,-0.013965,9.799719,-0.006519,0.001243,0.002517,0.549808,0.320693,0.102477,-0.037123,0.168970,61.697105
00670,55400000,1970,1,1,0,17,42,0,-0.016233,-0.024716,9.815770,-0.008804,0.003990,0.001189,0.561146,0.331587,0.103469,-0.038199,0.169690,61.697128
00671,65400000,1970,1,1,0,17,42,0,-0.032409,-0.007679,9.797029,-0.007003,-0.000035,0.001324,0.560701,0.326273,0.108519,-0.038244,0.168103,61.695438
00672,75400000,1970,1,1,0,17,42,0,-0.032151,-0.023946,9.808551,-0.008612,0.001370,0.000803,0.569204,0.334443,0.109263,-0.039211,0.167322,61.695499
00673,85400000,1970,1,1,0,17,42,0,-0.018327,-0.014487,9.801855,-0.006120,0.005875,-0.000383,0.563836,0.328726,0.103681,-0.038753,0.169123,61.693535
00674,95400000,1970,1,1,0,17,42,0,-0.023938,-0.028077,9.802975,-0.005911,0.002973,0.001218,0.563685,0.328861,0.106224,-0.038172,0.169260,61.693596
00675,105400000,1970,1,1,0,17,42,0,-0.022320,-0.017955,9.823750,-0.008648,0.004698,-0.000992,0.560406,0.320823,0.111026,-0.039163,0.170386,61.692291
00676,115400000,1970,1,1,0,17,42,0,-0.037270,-0.007157,9.810954,-0.007315,-0.000621,0.000329,0.558089,0.326207,0.105746,-0.039387,0.168463,61.694164
00677,125400000,1970,1,1,0,17,42,0,-0.028767,-0.011169,9.805621,-0.007560,0.001279,0.001361,0.555248,0.329203,0.108078,-0.039749,0.167629,61.693901
00678,135400000,1970,1,1,0,17,42,0,-0.033875,-0.014583,9.803304,-0.007350,0.004059,-0.000287,0.563980,0.334311,0.103717,-0.039992,0.168389,61.690918
00679,145400000,1970,1,1,0,17,42,0,-0.033485,-0.013149,9.795478,-0.006417,0.003864,0.001023,0.554875,0.326680,0.113146,-0.039699,0.169036,61.688725
00680,155400000,1970,1,1,0,17,42,0,-0.024719,-0.022730,9.818028,-0.006393,0.005349,0.001467,0.563836,0.328726,0.103681,-0.039392,0.170535,61.687859
00681,165400000,1970,1,1,0,17,42,0,-0.029337,-0.016119,9.802538,-0.006184,0.002236,0.002975,0.561446,0.331317,0.098383,-0.038964,0.170251,61.689007
00682,175400000,1970,1,1,0,17,42,0,-0.027992,-0.016727,9.815132,-0.006745,0.005756,0.003277,0.549573,0.329475,0.110161,-0.038857,0.171985,61.688808
00683,185400000,1970,1,1,0,17,42,0,-0.022817,-0.010149,9.815790,-0.006917,0.001483,-0.000126,0.555404,0.323348,0.102955,-0.038855,0.171269,61.684914
00684,195400000,1970,1,1,0,17,42,0,-0.034228,-0.012407,9.813855,-0.004653,0.001123,0.002541,0.566526,0.325865,0.103893,-0.037550,0.170347,61.686226
00685,205400000,1970,1,1,0,17,42,0,-0.035824,-0.020802,9.800784,-0.006926,0.002165,0.002712,0.558161,0.328999,0.105764,-0.037548,0.170023,61.688946
00686,215400000,1970,1,1,0,17,42,0,-0.040033,-0.025033,9.807973,-0.005335,0.004658,0.002389,0.560845,0.331857,0.108556,-0.036638,0.171126,61.688499
00687,225400000,1970,1,1,0,17,42,0,-0.022307,-0.013742,9.814610,-0.006073,0.002209,0.001913,0.547635,0.331661,0.097234,-0.036151,0.170826,61.687290
00688,235400000,1970,1,1,0,17,42,0,-0.010351,-0.018185,9.807780,-0.007160,0.001406,0.000251,0.555994,0.334247,0.097941,-0.036290,0.170065,61.682552
00689,245400000,1970,1,1,0,17,42,0,-0.034459,-0.001213,9.806015,-0.006679,0.003478,0.000935,0.558534,0.331521,0.100696,-0.036150,0.170490,61.679134
00690,255400000,1970,1,1,0,17,42,0,-0.022352,-0.008004,9.808556,-0.006823,0.001778,0.004202,0.552642,0.323417,0.102725,-0.036085,0.169945,61.679253
00691,265400000,1970,1,1,0,17,42,0,-0.029244,-0.002310,9.805489,-0.006567,0.002866,-0.000763,0.552931,0.334586,0.102798,-0.035881,0.170019,61.678391
00692,275400000,1970,1,1,0,17,42,0,-0.022483,-0.017254,9.800490,-0.009127,0.001897,0.000768,0.549507,0.320963,0.107563,-0.037139,0.169539,61.674274
00693,285400000,1970,1,1,0,17,42,0,-0.034767,-0.004440,9.824041,-0.005048,0.001996,0.000957,0.569210,0.328724,0.106684,-0.036067,0.169117,61.674831
00694,295400000,1970,1,1,0,17,42,0,-0.034650,-0.014441,9.808746,-0.006594,0.001348,0.000264,0.558089,0.326207,0.105746,-0.035878,0.168325,61.676003
00695,305400000,1970,1,1,0,17,42,0,-0.023868,-0.022939,9.811154,-0.007561,0.001373,0.004709,0.566821,0.331315,0.101386,-0.036230,0.167542,61.678383
00696,315400000,1970,1,1,0,17,42,0,-0.022043,-0.019533,9.808443,-0.004965,-0.001386,0.001547,0.561073,0.328795,0.103451,-0.035105,0.165182,61.678776
00697,325400000,1970,1,1,0,17,42,0,-0.022467,-0.019981,9.813311,-0.008861,0.003032,0.002120,0.572351,0.325458,0.099266,-0.036213,0.165354,61.679264
00698,335400000,1970,1,1,0,17,42,0,-0.039324,-0.013812,9.813907,-0.005652,0.005207,0.000715,0.561146,0.331587,0.103469,-0.035487,0.166775,61.682484
00699,345400000,1970,1,1,0,17,42,0,-0.037641,-0.016838,9.814639,-0.006648,0.000275,0.002838,0.566448,0.328792,0.106454,-0.035324,0.165366,61.682243
00700,355400000,1970,1,1,0,17,42,0,-0.032434,-0.016219,9.808183,-0.007826,0.001273,0.002489,0.558383,0.331656,0.103239,-0.035837,0.164530,61.683952
00701,365400000,1970,1,1,0,17,42,0,-0.030835,-0.010092,9.799191,-0.007900,0.003724,-0.001066,0.566453,0.323073,0.103874,-0.036396,0.165095,61.680859
00702,375400000,1970,1,1,0,17,42,0,-0.032734,-0.015881,9.797268,-0.008462,0.002426,-0.001161,0.558233,0.331791,0.105783,-0.037278,0.164920,61.682621
00703,385400000,1970,1,1,0,17,42,0,-0.028014,-0.008890,9.800773,-0.006447,0.004346,0.002912,0.569210,0.328724,0.106684,-0.036999,0.165844,61.681709
00704,395400000,1970,1,1,0,17,42,0,-0.040705,-0.013636,9.815191,-0.005982,0.003681,0.001977,0.555772,0.331590,0.100466,-0.036459,0.166386,61.683704
00705,405400000,1970,1,1,0,17,42,0,-0.027479,-0.015463,9.814901,-0.005021,0.003632,0.001053,0.566448,0.328792,0.106454,-0.035369,0.166901,61.681286
00706,415400000,1970,1,1,0,17,42,0,-0.028685,-0.010648,9.812147,-0.007379,0.000532,0.000554,0.555621,0.331725,0.103010,-0.035631,0.165639,61.681908
00707,425400000,1970,1,1,0,17,42,0,-0.005370,-0.020305,9.802749,-0.007275,0.005144,-0.002341,0.563529,0.334716,0.111347,-0.035837,0.167017,61.677536
00708,435400000,1970,1,1,0,17,42,0,-0.029858,-0.014011,9.810716,-0.005195,0.004573,0.003610,0.558305,0.334583,0.105801,-0.034839,0.168073,61.677177
00709,445400000,1970,1,1,0,17,42,0,-0.016557,-0.043129,9.804155,-0.006587,0.005179,0.002908,0.555621,0.331725,0.103010,-0.034643,0.169472,61.675434
00710,455400000,1970,1,1,0,17,42,0,-0.024001,-0.025567,9.814477,-0.004092,0.001707,0.000301,0.541816,0.326349,0.099281,-0.033022,0.168885,61.672817
00711,465400000,1970,1,1,0,17,42,0,-0.030448,-0.025743,9.821864,-0.007029,0.004728,-0.000825,0.544572,0.332000,0.102090,-0.033084,0.170026,61.668858
00712,475400000,1970,1,1,0,17,42,0,-0.030662,-0.018275,9.805244,-0.007428,0.001914,0.001825,0.563469,0.320484,0.106169,-0.033372,0.169554,61.664997
00713,485400000,1970,1,1,0,17,42,0,-0.039453,-0.009918,9.815916,-0.008997,0.002165,0.002655,0.561073,0.328795,0.103451,-0.034557,0.169233,61.669731
00714,495400000,1970,1,1,0,17,42,0,-0.022898,-0.011564,9.808907,-0.007477,0.001932,0.003171,0.555471,0.331860,0.105553,-0.034872,0.168774,61.671104
00715,505400000,1970,1,1,0,17,42,0,-0.016031,-0.002245,9.799387,-0.009657,0.003079,0.001058,0.566815,0.337034,0.103965,-0.036438,0.168971,61.668987
00716,515400000,1970,1,1,0,17,42,0,-0.022795,-0.002830,9.807718,-0.008048,0.003591,0.000610,0.558311,0.328864,0.103221,-0.037082,0.169461,61.667068
00717,525400000,1970,1,1,0,17,42,0,-0.036021,-0.011571,9.808133,-0.007800,0.003858,0.000575,0.561079,0.323076,0.100871,-0.037584,0.170106,61.666458
00718,535400000,1970,1,1,0,17,42,0,-0.036621,-0.018259,9.814185,-0.007441,0.001446,0.000453,0.563691,0.323142,0.103644,-0.037881,0.169369,61.668468
00719,545400000,1970,1,1,0,17,42,0,-0.024741,-0.019222,9.820044,-0.006991,0.005522,0.001874,0.561001,0.326003,0.103433,-0.037918,0.170969,61.671734
00720,555400000,1970,1,1,0,17,42,0,-0.022912,-0.027291,9.806186,-0.006469,0.000584,0.003302,0.558016,0.323414,0.105728,-0.037655,0.169739,61.674114
00721,565400000,1970,1,1,0,17,42,0,-0.034540,-0.003003,9.803522,-0.007894,0.002533,0.001820,0.558546,0.320082,0.095537,-0.038206,0.169626,61.675968
00722,575400000,1970,1,1,0,17,42,0,-0.041841,-0.012368,9.804969,-0.006874,0.000324,-0.001151,0.563240,0.323547,0.111274,-0.038181,0.168247,61.677376
00723,585400000,1970,1,1,0,17,42,0,-0.023324,-0.025574,9.808792,-0.006509,0.003288,-0.000423,0.560995,0.331722,0.106012,-0.037946,0.168566,61.678787
00724,595400000,1970,1,1,0,17,42,0,-0.035558,-0.016598,9.802216,-0.005832,0.002185,-0.001216,0.555693,0.334517,0.103028,-0.037324,0.168251,61.676220
00725,605400000,1970,1,1,0,17,42,0,-0.044016,-0.011362,9.808264,-0.007565,0.003052,0.001596,0.564209,0.331248,0.098613,-0.037690,0.168433,61.673222
00726,615400000,1970,1,1,0,17,42,0,-0.034402,-0.001545,9.819423,-0.006652,0.003940,0.000993,0.560622,0.329200,0.111081,-0.037535,0.169124,61.672886
00727,625400000,1970,1,1,0,17,42,0,-0.020779,-0.006068,9.791136,-0.005129,0.003957,0.001037,0.566670,0.331450,0.103929,-0.036504,0.169825,61.672615
00728,635400000,1970,1,1,0,17,42,0,-0.029091,0.001354,9.809046,-0.008411,0.002962,0.001945,0.555254,0.323483,0.105498,-0.037354,0.169957,61.673248
00729,645400000,1970,1,1,0,17,42,0,-0.014938,-0.016944,9.807718,-0.005739,0.002232,-0.000731,0.552715,0.326209,0.102743,-0.036675,0.169670,61.672981
00730,655400000,1970,1,1,0,17,42,0,-0.021706,-0.015524,9.813794,-0.006640,0.004296,-0.000009,0.552558,0.332063,0.107866,-0.036512,0.170567,61.671562
00731,665400000,1970,1,1,0,17,42,0,-0.035886,-0.017284,9.811342,-0.006514,0.001158,-0.000077,0.566748,0.328522,0.101367,-0.036279,0.169662,61.667908
00732,675400000,1970,1,1,0,17,42,0,-0.026204,-0.020751,9.802939,-0.008702,0.002283,-0.000612,0.566147,0.329062,0.111540,-0.037300,0.169404,61.668270
00733,685400000,1970,1,1,0,17,42,0,-0.025064,-0.033683,9.807468,-0.008208,0.001304,0.003929,0.561001,0.326003,0.103433,-0.038030,0.168586,61.670891
00734,695400000,1970,1,1,0,17,42,0,-0.030355,-0.025920,9.808812,-0.007847,0.001572,0.002801,0.558016,0.323414,0.105728,-0.038555,0.167925,61.672886
00735,705400000,1970,1,1,0,17,42,0,-0.027463,-0.015081,9.806835,-0.008875,0.004148,-0.000408,0.563763,0.325934,0.103663,-0.039677,0.168737,61.673298
00736,715400000,1970,1,1,0,17,42,0,-0.026318,-0.018032,9.816335,-0.006996,0.001163,-0.000328,0.560917,0.334649,0.108574,-0.039722,0.167838,61.674042
00737,725400000,1970,1,1,0,17,42,0,-0.029300,-0.009219,9.801580,-0.007216,0.003125,0.002253,0.544500,0.329208,0.102072,-0.039888,0.168063,61.672352
00738,735400000,1970,1,1,0,17,42,0,-0.029338,-0.009320,9.820681,-0.006373,0.001531,0.003233,0.558540,0.325802,0.098117,-0.039567,0.167374,61.669888
00739,745400000,1970,1,1,0,17,42,0,-0.030080,-0.012277,9.809877,-0.009425,0.002899,0.000919,0.561452,0.325598,0.095803,-0.041000,0.167469,61.670406
00740,755400000,1970,1,1,0,17,42,0,-0.020927,-0.019347,9.806921,-0.009314,0.001441,0.000930,0.547112,0.329274,0.104845,-0.042369,0.166730,61.671616
00741,765400000,1970,1,1,0,17,42,0,-0.043511,-0.000726,9.806604,-0.004175,0.001671,0.001908,0.563613,0.326069,0.106206,-0.040791,0.166121,61.668938
00742,775400000,1970,1,1,0,17,42,0,-0.032434,-0.006996,9.818027,-0.006407,0.002805,0.001173,0.555332,0.320556,0.102937,-0.040492,0.166164,61.670593
00743,785400000,1970,1,1,0,17,42,0,-0.036362,-0.003793,9.799940,-0.007252,0.002886,0.001395,0.560923,0.328930,0.105994,-0.040678,0.166252,61.672688
00744,795400000,1970,1,1,0,17,42,0,-0.023618,-0.023683,9.814128,-0.008287,0.002028,0.003031,0.563613,0.326069,0.106206,-0.041456,0.165849,61.673656
00745,805400000,1970,1,1,0,17,42,0,-0.029147,-0.018902,9.809894,-0.004858,-0.000295,0.002790,0.561302,0.325733,0.098346,-0.040267,0.164115,61.676151
00746,815400000,1970,1,1,0,17,42,0,-0.034762,-0.015260,9.800323,-0.004233,0.002207,0.001704,0.552715,0.326209,0.102743,-0.038725,0.163815,61.677570
00747,825400000,1970,1,1,0,17,42,0,-0.022740,-0.013265,9.812114,-0.008908,0.002479,0.000998,0.566448,0.328792,0.106454,-0.039858,0.163669,61.676559
00748,835400000,1970,1,1,0,17,42,0,-0.022414,-0.022249,9.814016,-0.008377,0.002701,-0.000556,0.555404,0.323348,0.102955,-0.040693,0.163652,61.676659
00749,845400000,1970,1,1,0,17,42,0,-0.032023,-0.020575,9.804282,-0.008595,0.002235,0.000418,0.563769,0.320215,0.101083,-0.041651,0.163365,61.676979
00750,855400000,1970,1,1,0,17,42,0,-0.022586,-0.005336,9.807126,-0.006438,0.000591,0.001145,0.555254,0.323483,0.105498,-0.041370,0.162140,61.680733
00751,865400000,1970,1,1,0,17,42,0,-0.026857,-0.008091,9.809796,-0.004183,0.003161,0.000382,0.563685,0.328861,0.106224,-0.039799,0.162385,61.680809
00752,875400000,1970,1,1,0,17,42,0,-0.026446,-0.009169,9.800079,-0.006264,0.005341,0.002262,0.563234,0.329266,0.113854,-0.039418,0.163878,61.681717
00753,885400000,1970,1,1,0,17,42,0,-0.030265,-0.000117,9.804172,-0.007708,0.002168,-0.000288,0.571972,0.328655,0.106914,-0.039866,0.163555,61.680878
00754,895400000,1970,1,1,0,17,42,0,-0.023935,-0.012217,9.808423,-0.007730,0.002100,-0.001050,0.553082,0.334451,0.100255,-0.040331,0.163191,61.681820
00755,905400000,1970,1,1,0,17,42,0,-0.023378,-0.017923,9.807728,-0.004962,0.005171,0.000400,0.563980,0.334311,0.103717,-0.039208,0.164585,61.677013
00756,915400000,1970,1,1,0,17,42,0,-0.028965,-0.023384,9.808122,-0.008117,0.002510,-0.001351,0.564058,0.331383,0.101156,-0.039895,0.164456,61.673820
00757,925400000,1970,1,1,0,17,42,0,-0.031814,-0.015222,9.816625,-0.007056,0.004241,0.002214,0.552336,0.329406,0.110391,-0.039971,0.165321,61.673897
00758,935400000,1970,1,1,0,17,42,0,-0.028206,-0.011106,9.821882,-0.005271,0.001540,0.003512,0.544723,0.331865,0.099547,-0.039019,0.164637,61.672928
00759,945400000,1970,1,1,0,17,42,0,-0.022418,-0.023230,9.808920,-0.005704,0.001625,-0.000146,0.555410,0.317629,0.100375,-0.038320,0.163998,61.667202
00760,955400000,1970,1,1,0,17,42,0,-0.023278,-0.027943,9.817928,-0.009605,0.001152,-0.000663,0.550097,0.331862,0.102550,-0.039857,0.163093,61.669376
00761,965400000,1970,1,1,0,17,42,0,-0.031899,-0.015927,9.807131,-0.007753,0.003392,0.000643,0.541515,0.326619,0.104367,-0.040334,0.163467,61.665352
00762,975400000,1970,1,1,0,17,42,0,-0.031620,0.003412,9.812694,-0.006925,0.004307,0.001711,0.558606,0.334313,0.100714,-0.040330,0.164368,61.662239
00763,985400000,1970,1,1,0,17,42,0,-0.025046,-0.021502,9.807343,-0.006804,0.003730,0.000700,0.564052,0.337103,0.103735,-0.040261,0.164939,61.659321
00764,995400000,1970,1,1,0,17,42,0,-0.034611,0.004763,9.810750,-0.005166,0.003197,0.000435,0.557866,0.323549,0.108271,-0.039255,0.165203,61.656406
00765,5400000,1970,1,1,0,17,43,0,-0.042673,0.002066,9.803054,-0.010132,0.002838,-0.000735,0.555404,0.323348,0.102955,-0.041095,0.165263,61.657021
00766,15400000,1970,1,1,0,17,43,0,-0.019843,-0.018765,9.795665,-0.005756,0.003361,0.004519,0.547262,0.329139,0.102302,-0.040419,0.165622,61.660130
00767,25400000,1970,1,1,0,17,43,0,-0.029662,-0.013928,9.809295,-0.005780,0.002779,-0.001512,0.561001,0.326003,0.103433,-0.039768,0.165646,61.655563
00768,35400000,1970,1,1,0,17,43,0,-0.029782,-0.016477,9.807274,-0.008129,0.003015,0.001652,0.560628,0.323480,0.108501,-0.040454,0.165809,61.657253
00769,45400000,1970,1,1,0,17,43,0,-0.033578,-0.012780,9.808879,-0.008780,0.003107,0.002621,0.561152,0.325868,0.100890,-0.041514,0.166025,61.660393
00770,55400000,1970,1,1,0,17,43,0,-0.043612,-0.019061,9.815393,-0.007574,0.004335,0.002029,0.561146,0.331587,0.103469,-0.041882,0.166944,61.662273
00771,65400000,1970,1,1,0,17,43,0,-0.028718,-0.014022,9.804441,-0.006543,0.002589,0.001930,0.566381,0.320281,0.103856,-0.041661,0.166863,61.661694
00772,75400000,1970,1,1,0,17,43,0,-0.030361,-0.010616,9.805839,-0.004849,0.003075,0.000874,0.558161,0.328999,0.105764,-0.040472,0.167061,61.666439
00773,85400000,1970,1,1,0,17,43,0,-0.023284,-0.016814,9.816144,-0.009112,0.004137,-0.000152,0.557944,0.320622,0.105710,-0.041729,0.167866,61.664955
00774,95400000,1970,1,1,0,17,43,0,-0.025079,-0.010308,9.811250,-0.007449,0.001569,-0.000152,0.566899,0.328387,0.098824,-0.042028,0.167199,61.666916
00775,105400000,1970,1,1,0,17,43,0,-0.024206,-0.009233,9.816362,-0.006349,0.003722,0.001421,0.558161,0.328999,0.105764,-0.041696,0.167766,61.668598
00776,115400000,1970,1,1,0,17,43,0,-0.026892,0.001612,9.800182,-0.010947,0.005344,0.003080,0.561068,0.334514,0.106031,-0.043996,0.169263,61.668850
00777,125400000,1970,1,1,0,17,43,0,-0.027629,-0.010858,9.800653,-0.006799,0.001760,0.002235,0.558161,0.328999,0.105764,-0.043917,0.168704,61.667034
00778,135400000,1970,1,1,0,17,43,0,-0.041106,-0.001183,9.823715,-0.008818,-0.000040,0.001240,0.566453,0.323073,0.103874,-0.044998,0.167115,61.666290
00779,145400000,1970,1,1,0,17,43,0,-0.028975,-0.010571,9.814403,-0.006156,0.002645,-0.000179,0.561001,0.326003,0.103433,-0.044559,0.167065,61.669231
00780,155400000,1970,1,1,0,17,43,0,-0.029302,-0.009745,9.802533,-0.006235,0.002348,0.003247,0.555549,0.328933,0.102991,-0.044156,0.166848,61.671520
00781,165400000,1970,1,1,0,17,43,0,-0.025549,-0.021357,9.802118,-0.009659,0.001282,0.000919,0.563980,0.334311,0.103717,-0.045719,0.166016,61.669853
00782,175400000,1970,1,1,0,17,43,0,-0.045579,-0.007555,9.796736,-0.007971,0.002577,0.000275,0.561146,0.331587,0.103469,-0.046319,0.165925,61.667614
00783,185400000,1970,1,1,0,17,43,0,-0.038389,-0.006789,9.814623,-0.005656,0.000921,0.000972,0.569288,0.325796,0.104122,-0.045591,0.164887,61.666290
00784,195400000,1970,1,1,0,17,43,0,-0.030826,-0.013505,9.811646,-0.008133,0.002599,0.001030,0.563685,0.328861,0.106224,-0.046280,0.164812,61.669483
00785,205400000,1970,1,1,0,17,43,0,-0.016722,-0.026100,9.815172,-0.005734,0.003061,0.001785,0.561452,0.325598,0.095803,-0.045593,0.165001,61.670338
00786,215400000,1970,1,1,0,17,43,0,-0.032284,-0.000269,9.805330,-0.004907,0.002768,-0.000609,0.558389,0.325937,0.100660,-0.044435,0.165018,61.670681
00787,225400000,1970,1,1,0,17,43,0,-0.023857,-0.003283,9.801766,-0.008305,0.001122,-0.000288,0.555326,0.326275,0.105516,-0.045225,0.164096,61.670265
00788,235400000,1970,1,1,0,17,43,0,-0.024301,-0.008602,9.815180,-0.006321,0.002699,0.000398,0.558005,0.334853,0.110887,-0.044875,0.164077,61.669342
00789,245400000,1970,1,1,0,17,43,0,-0.012359,-0.012784,9.821750,-0.005075,0.001072,0.001549,0.561073,0.328795,0.103451,-0.043812,0.163123,61.666027
00790,255400000,1970,1,1,0,17,43,0,-0.011540,-0.022495,9.801478,-0.005668,0.005211,0.002848,0.552781,0.334721,0.105341,-0.043090,0.164543,61.666950
00791,265400000,1970,1,1,0,17,43,0,-0.032389,-0.008025,9.801418,-0.006110,0.001079,-0.000187,0.561001,0.326003,0.103433,-0.042623,0.163593,61.661530
00792,275400000,1970,1,1,0,17,43,0,-0.034454,-0.008104,9.818832,-0.005287,0.004317,0.001289,0.552636,0.329136,0.105305,-0.041681,0.164501,61.662865
00793,285400000,1970,1,1,0,17,43,0,-0.020047,-0.018139,9.828642,-0.004284,0.001002,0.001892,0.560851,0.326138,0.105976,-0.040164,0.163508,61.661091
00794,295400000,1970,1,1,0,17,43,0,-0.026838,-0.023209,9.820130,-0.008365,0.002702,0.002173,0.563758,0.331653,0.106242,-0.040986,0.163492,61.662853
00795,305400000,1970,1,1,0,17,43,0,-0.021253,-0.019654,9.795888,-0.007100,0.003094,0.001554,0.560857,0.320418,0.103396,-0.041084,0.163699,61.662540
00796,315400000,1970,1,1,0,17,43,0,-0.024737,-0.007278,9.802117,-0.006263,0.002763,0.004245,0.555549,0.328933,0.102991,-0.040697,0.163719,61.667953
00797,325400000,1970,1,1,0,17,43,0,-0.031381,-0.023708,9.818886,-0.008469,0.001954,0.000410,0.560857,0.320418,0.103396,-0.041586,0.163272,61.666008
00798,335400000,1970,1,1,0,17,43,0,-0.024913,-0.003711,9.796418,-0.007728,0.001546,0.002022,0.549724,0.329340,0.107618,-0.042040,0.162591,61.670094
00799,345400000,1970,1,1,0,17,43,0,-0.023320,-0.001732,9.805573,-0.008228,0.004036,0.001112,0.558161,0.328999,0.105764,-0.042784,0.163336,61.666897
00800,355400000,1970,1,1,0,17,43,0,-0.036706,-0.004017,9.808716,-0.010243,0.004633,-0.000748,0.560695,0.331992,0.111099,-0.044685,0.164423,61.664944
00801,365400000,1970,1,1,0,17,43,0,-0.030749,-0.011331,9.805362,-0.007342,0.002349,0.002217,0.572050,0.325728,0.104352,-0.044923,0.164201,61.664036
00802,375400000,1970,1,1,0,17,43,0,-0.028886,-0.012975,9.816188,-0.005823,0.002976,0.001518,0.560917,0.334649,0.108574,-0.044286,0.164343,61.668278
00803,385400000,1970,1,1,0,17,43,0,-0.027296,-0.012988,9.831033,-0.006796,0.003309,0.001287,0.558245,0.320352,0.100623,-0.044208,0.164671,61.665634
00804,395400000,1970,1,1,0,17,43,0,-0.031846,-0.015214,9.812938,-0.005497,0.002737,0.001818,0.555549,0.328933,0.102991,-0.043388,0.164676,61.668980
00805,405400000,1970,1,1,0,17,43,0,-0.037589,-0.013228,9.796494,-0.006636,0.006212,-0.001335,0.569065,0.323139,0.106647,-0.043224,0.166670,61.666000
00806,415400000,1970,1,1,0,17,43,0,-0.035271,-0.013451,9.794506,-0.009060,0.005602,0.001507,0.555772,0.331590,0.100466,-0.044443,0.168315,61.670563
