// General information: 
//  MT Manager version: 2019.0.1 
//  XDA version: 2019.0.1 build 2740 rev 84096 built on 2019-01-30
// Device information: 
//  DeviceId: 077002EC
//  ProductCode: MTi-G-700-2A5G4
//  Firmware Version: 1.4.1
//  Hardware Version: 2.0.0
// Device settings: 
//  Filter Profile: GeneralMag(3.17)
//  Option Flags: Orientation Smoother Disabled, AHS Disabled, ICC Disabled
//  GNSS Platform: Portable
// Coordinate system: ENU
PacketCounter,UTC_Nano,UTC_Year,UTC_Month,UTC_Day,UTC_Hour,UTC_Minute,UTC_Second,UTC_Valid,Acc_X,Acc_Y,Acc_Z,Gyr_X,Gyr_Y,Gyr_Z,Mag_X,Mag_Y,Mag_Z,Roll,Pitch,Yaw
00001,427900000,1970,1,1,0,0,23,0,-0.932455,2.503683,9.372169,-0.349456,-0.147466,0.008045,0.443813,-0.310913,0.544785,7.347357,5.004883,146.650299
00002,437900000,1970,1,1,0,0,23,0,-1.001032,2.312604,9.360571,-0.414500,-0.137663,0.049903,0.450016,-0.299995,0.540169,7.115605,4.921394,146.668396
00003,447900000,1970,1,1,0,0,23,0,-0.934838,1.990227,9.438004,-0.289552,-0.103926,0.034716,0.449717,-0.305523,0.542710,6.954908,4.858222,146.680481
00004,457900000,1970,1,1,0,0,23,0,-0.827421,1.817750,9.591956,-0.117750,-0.075165,0.011747,0.444185,-0.302551,0.542262,6.891724,4.813022,146.681564
00005,467900000,1970,1,1,0,0,23,0,-0.728952,1.671418,9.809126,-0.068397,-0.056056,0.003567,0.452661,-0.294125,0.545595,6.856531,4.779268,146.679321
00006,477900000,1970,1,1,0,0,23,0,-0.442962,1.562905,9.940434,-0.051979,-0.053629,0.008714,0.441213,-0.284937,0.552451,6.831025,4.746536,146.680206
00007,487900000,1970,1,1,0,0,23,0,-0.170275,1.533982,10.114999,0.007964,-0.035469,0.039267,0.449547,-0.287979,0.553132,6.841400,4.722055,146.699783
00008,497900000,1970,1,1,0,0,23,0,-0.137369,1.502261,10.300316,0.035718,-0.052412,0.080590,0.453021,-0.274159,0.548302,6.869517,4.685078,146.741776
00009,507900000,1970,1,1,0,0,23,0,-0.043871,1.402418,10.363091,0.012048,-0.087316,0.120122,0.455214,-0.273681,0.558847,6.885653,4.625511,146.803894
00010,517900000,1970,1,1,0,0,23,0,-0.193246,1.378635,10.199188,0.040645,-0.129620,0.139899,0.447557,-0.262551,0.550487,6.918757,4.540473,146.874359
00011,527900000,1970,1,1,0,0,23,0,-0.427895,1.336246,9.851209,0.092560,-0.133567,0.139386,0.462162,-0.246041,0.549186,6.981441,4.453156,146.944138
00012,537900000,1970,1,1,0,0,23,0,-0.576103,1.348198,9.547552,0.161034,-0.104945,0.107555,0.453675,-0.242862,0.551083,7.082006,4.384237,146.997665
00013,547900000,1970,1,1,0,0,23,0,-0.628646,1.485052,9.459053,0.243418,-0.070675,0.073123,0.453968,-0.231530,0.551157,7.228390,4.337151,147.033844
00014,557900000,1970,1,1,0,0,23,0,-0.583966,1.686358,9.510383,0.311667,-0.049090,0.056565,0.454798,-0.223579,0.540901,7.413246,4.303430,147.062042
00015,567900000,1970,1,1,0,0,23,0,-0.607421,1.836064,9.612885,0.351668,-0.047804,0.052501,0.460617,-0.209418,0.544037,7.620827,4.270648,147.087891
00016,577900000,1970,1,1,0,0,23,0,-0.616520,1.936383,9.609889,0.344792,-0.036103,0.064297,0.449943,-0.212519,0.532774,7.825010,4.243518,147.121262
00017,587900000,1970,1,1,0,0,23,0,-0.608428,1.958591,9.702287,0.309871,-0.028612,0.052628,0.466752,-0.207136,0.536788,8.008737,4.221442,147.148483
00018,597900000,1970,1,1,0,0,23,0,-0.495457,2.077962,9.773494,0.257187,-0.037236,0.030124,0.459321,-0.193310,0.525870,8.161267,4.196207,147.162155
00019,607900000,1970,1,1,0,0,23,0,-0.704049,2.391507,10.041717,0.213880,-0.058363,0.004706,0.467942,-0.179218,0.529239,8.287795,4.161047,147.159576
00020,617900000,1970,1,1,0,0,23,0,-0.936982,2.915540,10.242176,0.168947,-0.124196,-0.017752,0.462715,-0.176520,0.523636,8.387290,4.090429,147.138672
00021,627900000,1970,1,1,0,0,23,0,-1.074255,3.646712,10.123883,0.077837,-0.189665,0.037818,0.474286,-0.156833,0.527276,8.436461,3.978087,147.143753
00022,637900000,1970,1,1,0,0,23,0,-1.046736,4.024993,9.826419,-0.052497,-0.188267,0.219909,0.458221,-0.145493,0.518217,8.418053,3.851251,147.252365
00023,647900000,1970,1,1,0,0,23,0,-0.840587,3.452780,9.592466,-0.145565,-0.132034,0.439314,0.472442,-0.125739,0.524668,8.354697,3.738047,147.490387
00024,657900000,1970,1,1,0,0,23,0,-0.677643,2.358453,9.508495,-0.174699,-0.041912,0.541459,0.464316,-0.102594,0.529271,8.278542,3.667736,147.794037
00025,667900000,1970,1,1,0,0,23,0,-0.756233,1.668510,9.860127,-0.097396,0.061097,0.452842,0.470654,-0.074406,0.529922,8.243793,3.663421,148.055878
00026,677900000,1970,1,1,0,0,23,0,-0.692734,1.612292,10.379255,0.033395,0.064695,0.268773,0.476620,-0.054579,0.533096,8.277342,3.676284,148.213455
00027,687900000,1970,1,1,0,0,23,0,-0.818768,2.073825,10.630626,0.088925,-0.010971,0.109580,0.482812,-0.032056,0.533710,8.336493,3.659302,148.274292
00028,697900000,1970,1,1,0,0,23,0,-0.999002,2.597938,10.187453,-0.056434,-0.077144,0.072425,0.489302,-0.004005,0.531783,8.310657,3.607863,148.308548
00029,707900000,1970,1,1,0,0,23,0,-1.211122,2.815084,9.605777,-0.298848,-0.011624,0.120503,0.493289,0.029645,0.527082,8.147963,3.589715,148.375565
00030,717900000,1970,1,1,0,0,23,0,-1.232108,2.785973,9.513026,-0.408803,0.125585,0.166880,0.497293,0.045888,0.514537,7.924674,3.645915,148.480026
00031,727900000,1970,1,1,0,0,23,0,-1.198903,2.517027,9.557590,-0.359543,0.214237,0.178848,0.525973,0.076487,0.519650,7.730651,3.751906,148.598022
00032,737900000,1970,1,1,0,0,23,0,-1.048648,2.199860,9.475699,-0.376556,0.360151,0.186205,0.526711,0.099013,0.517219,7.528200,3.940608,148.730972
00033,747900000,1970,1,1,0,0,23,0,-0.682539,2.137653,10.514430,-0.275089,0.702722,0.181432,0.547672,0.126304,0.508725,7.386157,4.324680,148.886261
00034,757900000,1970,1,1,0,0,23,0,-0.473674,2.158639,12.573613,0.200002,0.973411,0.119412,0.538103,0.159893,0.495124,7.516381,4.867157,149.026459
00035,767900000,1970,1,1,0,0,23,0,-0.997506,2.447826,14.134894,0.684316,0.972153,0.009008,0.565340,0.200935,0.482033,7.920021,5.416734,149.106308
00036,777900000,1970,1,1,0,0,23,0,-0.960251,3.007905,15.202080,0.819017,0.742324,-0.044536,0.571613,0.232533,0.438663,8.397107,5.839673,149.141220
00037,787900000,1970,1,1,0,0,23,0,-0.497246,3.563359,15.508461,0.676231,0.326925,0.067768,0.595079,0.266270,0.391556,8.795812,6.017380,149.207611
00038,797900000,1970,1,1,0,0,23,0,-0.287188,3.662213,14.960673,0.405874,-0.134294,0.326503,0.617351,0.289937,0.313226,9.050778,5.910624,149.381073
00039,807900000,1970,1,1,0,0,23,0,-0.371300,2.959067,13.819173,0.116055,-0.510895,0.571057,0.650248,0.290663,0.235681,9.149474,5.568076,149.658875
00040,817900000,1970,1,1,0,0,23,0,-0.620952,2.032610,12.363273,-0.188736,-0.805486,0.664685,0.655429,0.286011,0.148033,9.073869,5.050290,149.962738
00041,827900000,1970,1,1,0,0,23,0,-0.733462,1.495312,10.751026,-0.493546,-0.947642,0.644026,0.667365,0.259444,0.078982,8.818741,4.454733,150.243347
00042,837900000,1970,1,1,0,0,23,0,-0.528459,1.386235,10.139565,-0.665719,-0.848915,0.602044,0.656514,0.219273,0.007974,8.461279,3.920212,150.511551
00043,847900000,1970,1,1,0,0,23,0,-0.390785,1.386096,10.261649,-0.568112,-0.750841,0.537889,0.646727,0.166099,-0.039693,8.155737,3.448138,150.754349
00044,857900000,1970,1,1,0,0,23,0,-0.588608,1.446938,10.393024,-0.323642,-0.684476,0.401768,0.634516,0.115554,-0.092730,7.984400,3.025666,150.926971
00045,867900000,1970,1,1,0,0,23,0,-0.608831,2.057499,10.359258,-0.130571,-0.666435,0.271279,0.623212,0.057946,-0.117233,7.918898,2.624130,151.027664
00046,877900000,1970,1,1,0,0,23,0,-0.146507,2.857974,10.242209,-0.036924,-0.645302,0.291714,0.595848,0.005875,-0.153410,7.906928,2.233037,151.141846
00047,887900000,1970,1,1,0,0,23,0,0.252778,3.324358,10.236992,-0.046463,-0.633293,0.487177,0.581204,-0.048283,-0.167816,7.892706,1.833381,151.368011
00048,897900000,1970,1,1,0,0,23,0,0.606637,2.962992,10.198866,-0.122396,-0.684540,0.752169,0.546937,-0.096150,-0.181240,7.837452,1.383974,151.740799
00049,907900000,1970,1,1,0,0,23,0,0.914229,1.787769,9.868191,-0.295465,-0.760578,0.919687,0.540323,-0.153076,-0.189809,7.681696,0.879098,152.203506
00050,917900000,1970,1,1,0,0,23,0,0.333834,-4.595831,6.396492,-1.017982,-0.630373,0.780850,0.508915,-0.180773,-0.195137,7.107464,0.461360,152.600052
00051,927900000,1970,1,1,0,0,23,0,2.150599,-3.460885,8.744838,-3.253418,-0.058491,-0.298132,0.499176,-0.219949,-0.190939,5.246285,0.444405,152.425949
00052,937900000,1970,1,1,0,0,23,0,2.040013,-1.465735,9.064776,-2.303024,-0.146769,-0.696054,0.468122,-0.221877,-0.190945,3.927975,0.390424,152.021011
00053,947900000,1970,1,1,0,0,23,0,1.633660,1.038758,8.708001,-2.103221,-0.053749,-0.772439,0.450336,-0.240877,-0.184739,2.724062,0.383266,151.576721
00054,957900000,1970,1,1,0,0,23,0,1.501133,3.059704,9.274246,-2.067633,0.067327,-0.397650,0.441562,-0.254832,-0.185531,1.541949,0.428180,151.349808
00055,967900000,1970,1,1,0,0,23,0,1.606698,3.226598,10.162328,-1.452641,0.053917,0.112934,0.432038,-0.279707,-0.178663,0.714370,0.455643,151.414459
00056,977900000,1970,1,1,0,0,23,0,1.633664,2.105394,10.877096,-0.504627,-0.102750,0.458070,0.414850,-0.287649,-0.177540,0.431461,0.391951,151.675659
00057,987900000,1970,1,1,0,0,23,0,1.380591,0.313288,10.762248,0.043646,-0.289515,0.556928,0.408421,-0.301263,-0.170365,0.462475,0.221335,151.992798
00058,997900000,1970,1,1,0,0,23,0,1.687103,-0.507557,11.553391,-0.044393,-0.476643,0.495278,0.390720,-0.329035,-0.169371,0.441739,-0.056291,152.273727
00059,7900000,1970,1,1,0,0,24,0,2.248421,-0.475736,12.144350,0.351074,-0.745505,0.409001,0.384371,-0.345619,-0.164793,0.646066,-0.487979,152.503311
00060,17900000,1970,1,1,0,0,24,0,2.134967,-0.342019,11.232279,0.687028,-0.770867,0.429790,0.378168,-0.356536,-0.160177,1.040966,-0.935612,152.742340
00061,27900000,1970,1,1,0,0,24,0,1.453805,-0.542032,9.909109,0.321368,-0.408272,0.488868,0.368338,-0.381138,-0.148153,1.224234,-1.177453,153.017059
00062,37900000,1970,1,1,0,0,24,0,1.093435,-0.180221,10.118151,-0.064512,-0.019315,0.463479,0.342737,-0.383069,-0.145115,1.185967,-1.196578,153.281616
00063,47900000,1970,1,1,0,0,24,0,1.063502,0.509788,10.885921,0.241853,0.124092,0.405994,0.335784,-0.404907,-0.132840,1.323939,-1.133084,153.515030
00064,57900000,1970,1,1,0,0,24,0,0.782868,0.488770,11.088933,0.690091,0.157785,0.323489,0.332152,-0.412788,-0.122817,1.719895,-1.050146,153.701996
00065,67900000,1970,1,1,0,0,24,0,0.805382,0.640414,11.196972,0.679894,0.237574,0.301313,0.331170,-0.420603,-0.109983,2.110526,-0.922397,153.878357
00066,77900000,1970,1,1,0,0,24,0,0.890814,0.592131,11.296135,0.620425,0.279949,0.297364,0.329962,-0.431113,-0.094589,2.467520,-0.771478,154.054276
00067,87900000,1970,1,1,0,0,24,0,1.095504,0.481689,11.129074,0.655701,0.307562,0.296236,0.340191,-0.439206,-0.080822,2.845179,-0.605869,154.231277
00068,97900000,1970,1,1,0,0,24,0,1.295117,0.430344,10.941529,0.702975,0.402399,0.335528,0.314516,-0.443970,-0.077802,3.250282,-0.388442,154.434784
00069,107900000,1970,1,1,0,0,24,0,0.425402,-0.460432,13.495284,0.426318,0.591307,0.386726,0.315807,-0.454276,-0.057020,3.497649,-0.065892,154.675201
00070,117900000,1970,1,1,0,0,24,0,1.289981,-0.319671,21.295883,-1.432951,0.188917,0.329843,0.310354,-0.454273,-0.060064,2.680564,0.029382,154.869049
00071,127900000,1970,1,1,0,0,24,0,1.059556,0.549994,21.746201,-1.585846,-1.025598,0.324630,0.309914,-0.471270,-0.060175,1.775149,-0.567704,155.031342
00072,137900000,1970,1,1,0,0,24,0,0.719090,1.151339,16.919241,-1.305563,-1.918778,0.360016,0.295901,-0.470921,-0.061341,1.027570,-1.674493,155.209961
00073,147900000,1970,1,1,0,0,24,0,-0.055798,-0.075569,9.482537,-1.692544,-1.946243,0.350914,0.296364,-0.477134,-0.071690,0.054347,-2.794160,155.399811
00074,157900000,1970,1,1,0,0,24,0,0.202166,2.408293,7.443768,-1.605541,-1.468529,0.451923,0.301591,-0.479833,-0.066086,-0.876452,-3.636389,155.664337
00075,167900000,1970,1,1,0,0,24,0,0.788140,1.155630,7.768888,-1.022582,-0.963699,0.734266,0.301676,-0.488605,-0.071297,-1.487824,-4.182474,156.096451
00076,177900000,1970,1,1,0,0,24,0,1.398281,-0.979187,9.288157,-0.821277,-0.774512,0.743831,0.290545,-0.491295,-0.074826,-1.988125,-4.615859,156.536285
00077,187900000,1970,1,1,0,0,24,0,1.959013,-1.789398,10.103440,-0.881272,-0.644990,0.565024,0.290094,-0.496687,-0.069707,-2.517376,-4.975185,156.874557
00078,197900000,1970,1,1,0,0,24,0,2.025550,-1.324957,10.985131,-0.564971,-0.692253,0.338839,0.290551,-0.497097,-0.077441,-2.856316,-5.365098,157.087021
00079,207900000,1970,1,1,0,0,24,0,1.988140,0.073187,11.851139,-0.559124,-0.768795,0.324740,0.270628,-0.496335,-0.073918,-3.193136,-5.798002,157.296097
00080,217900000,1970,1,1,0,0,24,0,2.068979,1.477493,12.447161,-0.652298,-0.927914,0.587223,0.281692,-0.502280,-0.073022,-3.601881,-6.311654,157.664551
00081,227900000,1970,1,1,0,0,24,0,2.142721,0.663884,11.726579,-0.782523,-0.987713,0.948362,0.281698,-0.508082,-0.075636,-4.113129,-6.842648,158.247589
00082,237900000,1970,1,1,0,0,24,0,2.106253,-1.138875,11.254972,-1.061696,-0.939569,1.071202,0.273521,-0.510979,-0.081510,-4.798726,-7.334635,158.905319
00083,247900000,1970,1,1,0,0,24,0,1.988398,-2.160630,10.493554,-0.856497,-0.904691,0.925235,0.287229,-0.511055,-0.075189,-5.361760,-7.807010,159.483246
00084,257900000,1970,1,1,0,0,24,0,2.183432,-3.360080,9.556670,-0.898664,-0.767325,0.676027,0.265114,-0.510770,-0.082210,-5.933042,-8.209434,159.915131
00085,267900000,1970,1,1,0,0,24,0,1.861044,-3.777412,10.790013,-0.841902,-0.768908,0.276253,0.278980,-0.516784,-0.081081,-6.441870,-8.633416,160.121155
00086,277900000,1970,1,1,0,0,24,0,2.056016,-2.679241,10.409394,-0.701946,-0.823750,-0.068526,0.265729,-0.517120,-0.095136,-6.842680,-9.109828,160.135849
00087,287900000,1970,1,1,0,0,24,0,2.719011,-1.252552,10.159103,-0.284991,-0.973945,-0.149243,0.285195,-0.517471,-0.090926,-6.999271,-9.677155,160.116882
00088,297900000,1970,1,1,0,0,24,0,2.718043,-0.795565,9.560085,-0.036693,-1.002334,-0.035908,0.270962,-0.525621,-0.092147,-7.025241,-10.252736,160.166214
00089,307900000,1970,1,1,0,0,24,0,2.986222,-0.202525,9.986756,0.227288,-1.048212,0.148964,0.273539,-0.528386,-0.089355,-6.920580,-10.841596,160.325424
00090,317900000,1970,1,1,0,0,24,0,3.351151,-0.750982,9.185471,0.360321,-1.156706,0.397433,0.271182,-0.517122,-0.092092,-6.770510,-11.475570,160.635208
00091,327900000,1970,1,1,0,0,24,0,3.414436,-1.793215,9.093965,0.240960,-1.198735,0.484538,0.262402,-0.525274,-0.090269,-6.703109,-12.128205,160.997971
00092,337900000,1970,1,1,0,0,24,0,3.486671,-2.098451,8.342830,-0.022056,-1.222150,0.484214,0.254372,-0.522506,-0.096106,-6.791065,-12.794157,161.363159
00093,347900000,1970,1,1,0,0,24,0,3.708865,-1.402138,9.870955,-0.095657,-1.337844,0.556413,0.262249,-0.525138,-0.087691,-6.937579,-13.520270,161.781052
00094,357900000,1970,1,1,0,0,24,0,3.336483,-0.929613,5.997816,-0.512665,-1.428448,0.840440,0.251959,-0.531482,-0.106706,-7.371099,-14.275573,162.376999
00095,367900000,1970,1,1,0,0,24,0,4.380443,0.434188,6.989337,-1.017653,-1.505041,1.156338,0.251953,-0.525679,-0.104091,-8.152749,-15.043789,163.174622
00096,377900000,1970,1,1,0,0,24,0,6.940127,-1.230004,13.097903,0.302087,-2.206449,0.881768,0.229764,-0.528227,-0.111131,-8.166216,-16.226830,163.878937
00097,387900000,1970,1,1,0,0,24,0,3.772929,-1.152238,7.691587,1.111101,-2.007282,0.557546,0.243320,-0.528166,-0.102231,-7.669104,-17.325325,164.373505
00098,397900000,1970,1,1,0,0,24,0,4.483912,-1.212244,6.596779,1.284550,-1.087885,-0.126795,0.223177,-0.535902,-0.098763,-6.931771,-17.956182,164.379623
00099,407900000,1970,1,1,0,0,24,0,5.578702,-0.388352,7.299872,1.277998,-0.097184,-0.888377,0.240060,-0.527686,-0.094731,-6.033500,-18.072357,163.852997
00100,417900000,1970,1,1,0,0,24,0,4.975905,-0.234983,7.802504,1.189066,0.119768,-1.040695,0.253554,-0.542062,-0.091079,-5.152799,-18.065565,163.220322
00101,427900000,1970,1,1,0,0,24,0,4.834205,0.031490,7.403420,1.046677,0.058230,-1.059930,0.261487,-0.524453,-0.074802,-4.351015,-18.085985,162.579346
00102,437900000,1970,1,1,0,0,24,0,5.988873,-0.650061,8.255323,1.125956,0.087958,-1.262432,0.258453,-0.521277,-0.069861,-3.465400,-18.088362,161.815140
00103,447900000,1970,1,1,0,0,24,0,5.142003,-2.094479,9.296045,1.310043,-0.148327,-1.524344,0.264132,-0.518584,-0.069376,-2.426511,-18.221464,160.900345
00104,457900000,1970,1,1,0,0,24,0,4.317582,-1.928395,8.680855,1.460896,-0.127923,-1.559501,0.277163,-0.526747,-0.055376,-1.291657,-18.327005,159.960876
00105,467900000,1970,1,1,0,0,24,0,4.197968,-1.216475,8.440926,1.397288,-0.034653,-1.123007,0.293668,-0.521090,-0.046206,-0.274181,-18.358898,159.281891
00106,477900000,1970,1,1,0,0,24,0,4.439949,0.434925,7.492653,1.359777,0.111370,-0.839708,0.279423,-0.517634,-0.042198,0.667860,-18.296656,158.773819
00107,487900000,1970,1,1,0,0,24,0,5.917765,1.604843,7.219225,1.186705,0.182426,-0.583931,0.301308,-0.514813,-0.030002,1.461054,-18.189135,158.422150
00108,497900000,1970,1,1,0,0,24,0,6.376299,2.136317,7.012989,0.892946,0.029420,-0.355255,0.295550,-0.514536,-0.027891,2.042971,-18.169266,158.207077
00109,507900000,1970,1,1,0,0,24,0,5.556121,3.519499,5.917283,0.398467,-0.340391,-0.004231,0.295251,-0.520065,-0.025350,2.278180,-18.367317,158.195282
00110,517900000,1970,1,1,0,0,24,0,5.316452,3.816203,5.796946,-0.530652,-1.414631,0.963161,0.279502,-0.520604,-0.044794,1.800085,-19.200264,158.745804
00111,527900000,1970,1,1,0,0,24,0,6.308652,2.529664,6.134381,-0.987644,-1.923866,1.588010,0.282164,-0.532142,-0.047213,0.920491,-20.327225,159.682953
00112,537900000,1970,1,1,0,0,24,0,6.216011,1.268846,6.176673,-1.268685,-1.511640,2.260373,0.257325,-0.534757,-0.057064,-0.292002,-21.203913,161.061295
00113,547900000,1970,1,1,0,0,24,0,5.133900,0.089025,7.389189,-0.918708,-0.625565,2.988978,0.246041,-0.537310,-0.058015,-1.487070,-21.539299,162.904465
00114,557900000,1970,1,1,0,0,24,0,3.064079,-0.383981,7.544081,-0.231817,0.190518,2.199858,0.232193,-0.548703,-0.066988,-2.110419,-21.394270,164.252945
00115,567900000,1970,1,1,0,0,24,0,2.599929,0.195203,6.483980,0.275716,0.585171,0.578754,0.240436,-0.537171,-0.058481,-2.072905,-21.050745,164.593811
00116,577900000,1970,1,1,0,0,24,0,2.406173,1.007886,7.268379,0.498023,0.564592,-0.550454,0.240211,-0.539867,-0.055922,-1.659742,-20.741293,164.243637
00117,587900000,1970,1,1,0,0,24,0,2.475121,0.842096,7.764749,0.634839,0.294091,-1.086229,0.256648,-0.542845,-0.049385,-1.056336,-20.591108,163.572876
00118,597900000,1970,1,1,0,0,24,0,3.009407,0.529864,8.008257,0.606643,-0.018193,-1.099298,0.256874,-0.540149,-0.051945,-0.468546,-20.613358,162.898697
00119,607900000,1970,1,1,0,0,24,0,2.245060,0.455855,8.342255,0.486905,-0.623949,-0.848959,0.261869,-0.539741,-0.041167,-0.001876,-20.976229,162.378433
00120,617900000,1970,1,1,0,0,24,0,0.516442,0.331762,9.119884,0.242079,-1.748296,-0.436314,0.251116,-0.539872,-0.049833,0.239563,-21.980713,162.106018
00121,627900000,1970,1,1,0,0,24,0,-0.517286,-0.052201,10.255079,0.119484,-3.544057,-0.103917,0.254602,-0.537657,-0.059893,0.341251,-24.014185,162.028534
00122,637900000,1970,1,1,0,0,24,0,-0.253097,-0.464002,8.728162,0.112729,-5.442380,0.273614,0.236050,-0.538126,-0.079571,0.343360,-27.136389,162.179932
00123,647900000,1970,1,1,0,0,24,0,0.993231,-0.052986,8.173306,0.032225,-6.531473,0.614608,0.239457,-0.532941,-0.087034,0.179654,-30.883192,162.561111
00124,657900000,1970,1,1,0,0,24,0,2.956958,-0.508281,4.559932,0.166280,-6.127701,0.826512,0.217578,-0.541565,-0.101845,-0.021579,-34.397652,163.115585
00125,667900000,1970,1,1,0,0,24,0,5.716761,0.330179,5.100828,0.394610,-3.646151,0.782298,0.209396,-0.538659,-0.105104,-0.112448,-36.489079,163.666565
00126,677900000,1970,1,1,0,0,24,0,7.062945,0.270458,5.117650,0.597399,-1.290552,0.494738,0.195158,-0.541006,-0.103710,0.020724,-37.231136,164.019363
00127,687900000,1970,1,1,0,0,24,0,8.414052,0.175036,6.212316,0.781659,0.344354,-0.154075,0.214178,-0.552552,-0.096996,0.538541,-37.036282,163.907593
00128,697900000,1970,1,1,0,0,24,0,8.996859,0.427225,6.157736,0.898359,0.681492,-0.730524,0.199628,-0.548823,-0.087832,1.365754,-36.641796,163.390564
00129,707900000,1970,1,1,0,0,24,0,8.391955,1.080447,5.965072,0.763195,0.661255,-0.636235,0.219619,-0.540950,-0.088722,2.067572,-36.255043,162.949524
00130,717900000,1970,1,1,0,0,24,0,8.138661,1.229223,6.470528,0.742790,0.702678,-0.314986,0.202126,-0.548619,-0.082443,2.616245,-35.848309,162.744659
00131,727900000,1970,1,1,0,0,24,0,7.435658,1.089336,6.693839,0.814488,0.801762,-0.029033,0.221208,-0.545728,-0.070481,3.082233,-35.391571,162.750153
00132,737900000,1970,1,1,0,0,24,0,6.623079,0.355722,7.740223,0.840666,0.673495,0.329677,0.215298,-0.545315,-0.065791,3.419134,-35.019920,163.005615
00133,747900000,1970,1,1,0,0,24,0,5.009593,-0.335850,9.026538,0.752121,-0.025723,0.408983,0.223328,-0.548083,-0.059954,3.690411,-35.052074,163.288040
00134,757900000,1970,1,1,0,0,24,0,3.971657,-0.056226,8.715298,0.413688,-1.294733,-0.043176,0.203636,-0.550427,-0.061605,3.983952,-35.793423,163.194763
00135,767900000,1970,1,1,0,0,24,0,5.310302,0.874993,6.600367,0.192794,-1.262614,-0.805473,0.212654,-0.551184,-0.071217,4.473126,-36.483612,162.556732
00136,777900000,1970,1,1,0,0,24,0,6.889511,1.079837,6.874547,0.275709,-0.665331,-1.152861,0.215445,-0.539649,-0.065754,5.148264,-36.810780,161.694351
00137,787900000,1970,1,1,0,0,24,0,7.413951,1.766328,6.060925,0.331328,-0.628048,-0.958352,0.231955,-0.539794,-0.059199,5.778999,-37.119381,160.965195
00138,797900000,1970,1,1,0,0,24,0,8.159306,2.266758,5.903328,0.600242,-0.145690,-0.662757,0.224072,-0.531360,-0.064999,6.419402,-37.164677,160.478195
00139,807900000,1970,1,1,0,0,24,0,7.402157,1.862566,6.826037,0.752650,0.073438,-0.453110,0.237560,-0.539934,-0.058733,7.045896,-37.095100,160.158768
00140,817900000,1970,1,1,0,0,24,0,6.672497,1.892583,7.519277,0.757734,-0.115438,-0.281196,0.220446,-0.545044,-0.057591,7.611165,-37.142750,159.945557
00141,827900000,1970,1,1,0,0,24,0,5.880582,1.944534,8.003526,0.682083,-0.495818,-0.322639,0.225137,-0.544362,-0.041658,8.174814,-37.401325,159.664215
00142,837900000,1970,1,1,0,0,24,0,5.460582,1.511169,8.444098,0.492524,-1.182580,-0.442873,0.223011,-0.536205,-0.049569,8.732001,-38.036743,159.218750
00143,847900000,1970,1,1,0,0,24,0,5.540354,1.127430,8.345660,0.208966,-1.932963,-0.707289,0.236883,-0.548022,-0.051055,9.313003,-39.069439,158.482559
00144,857900000,1970,1,1,0,0,24,0,5.977143,0.675410,8.168112,0.067174,-2.452227,-0.968253,0.226881,-0.537232,-0.067381,10.005615,-40.363842,157.462738
00145,867900000,1970,1,1,0,0,24,0,6.647707,0.616038,7.098945,-0.123618,-2.861136,-0.952294,0.238012,-0.534542,-0.063852,10.664235,-41.880985,156.357300
00146,877900000,1970,1,1,0,0,24,0,7.517956,0.270697,7.405815,-0.043781,-2.981291,-0.717341,0.227716,-0.535084,-0.080252,11.315651,-43.481693,155.362961
00147,887900000,1970,1,1,0,0,24,0,7.838849,-0.158657,7.651927,0.059908,-3.145056,-0.416407,0.242564,-0.533284,-0.091957,11.937455,-45.200790,154.525772
00148,897900000,1970,1,1,0,0,24,0,7.662327,0.110821,8.219717,0.171668,-3.302907,-0.299745,0.225585,-0.521124,-0.085548,12.633110,-47.015446,153.700150
00149,907900000,1970,1,1,0,0,24,0,7.604825,0.550726,8.170544,0.305761,-3.106927,-0.474040,0.234235,-0.536044,-0.095253,13.550527,-48.689796,152.702133
00150,917900000,1970,1,1,0,0,24,0,7.638036,1.053720,8.149901,0.547724,-2.804700,-0.915828,0.229155,-0.527680,-0.100819,14.923598,-50.120335,151.310120
00151,927900000,1970,1,1,0,0,24,0,7.306500,1.032812,7.475833,0.615499,-2.228413,-1.276922,0.234449,-0.521744,-0.092583,16.561583,-51.152565,149.650497
00152,937900000,1970,1,1,0,0,24,0,7.225984,1.187013,7.107274,0.621974,-1.591883,-1.573141,0.231805,-0.527613,-0.098008,18.345165,-51.754009,147.828415
00153,947900000,1970,1,1,0,0,24,0,6.982999,1.073529,7.560763,0.699375,-1.295282,-1.877636,0.240219,-0.533625,-0.099924,20.360361,-52.099281,145.780273
00154,957900000,1970,1,1,0,0,24,0,6.772888,1.139550,6.972878,0.676478,-1.260132,-2.077665,0.240732,-0.513795,-0.099794,22.522688,-52.337563,143.537506
00155,967900000,1970,1,1,0,0,24,0,7.379212,1.305260,6.275009,0.754467,-1.137773,-2.111974,0.260350,-0.514284,-0.098162,24.738314,-52.451019,141.289139
00156,977900000,1970,1,1,0,0,24,0,7.925476,1.246510,5.794535,1.059666,-0.839114,-2.061406,0.268977,-0.505995,-0.097407,27.003256,-52.369343,139.199722
00157,987900000,1970,1,1,0,0,24,0,8.044839,1.289946,5.336375,1.358640,-0.522681,-1.889372,0.284952,-0.502760,-0.080522,29.201733,-52.124584,137.406357
00158,997900000,1970,1,1,0,0,24,0,8.590003,1.475063,4.774776,1.665262,-0.393392,-1.567201,0.282002,-0.508356,-0.080792,31.298441,-51.867863,135.958939
00159,7900000,1970,1,1,0,0,25,0,9.095911,1.610330,4.177520,1.858631,-0.288440,-1.381224,0.284348,-0.508015,-0.072825,33.327538,-51.585396,134.733398
00160,17900000,1970,1,1,0,0,25,0,9.421573,2.085557,3.697475,1.860565,-0.190471,-1.442246,0.291994,-0.507540,-0.059236,35.329845,-51.210350,133.537903
00161,27900000,1970,1,1,0,0,25,0,8.878842,2.828356,3.777898,1.704496,-0.228571,-1.474810,0.308352,-0.507549,-0.050104,37.248119,-50.816593,132.329056
00162,37900000,1970,1,1,0,0,25,0,8.738483,3.669753,4.187498,1.403492,-0.655581,-1.578012,0.300469,-0.499115,-0.055904,39.207703,-50.552959,130.838211
00163,47900000,1970,1,1,0,0,25,0,8.838880,4.411466,3.450354,1.083890,-1.086610,-1.684633,0.319483,-0.504858,-0.046574,41.213894,-50.405968,129.045242
00164,57900000,1970,1,1,0,0,25,0,9.126913,5.043519,2.867652,0.745909,-0.876012,-1.656597,0.310996,-0.501679,-0.044678,42.898327,-50.143459,127.413490
00165,67900000,1970,1,1,0,0,25,0,9.273847,5.396735,2.075447,0.554062,-0.434230,-1.704074,0.339394,-0.494016,-0.044868,44.263630,-49.651146,126.046318
00166,77900000,1970,1,1,0,0,25,0,9.095531,5.218505,1.668449,0.274252,-0.068964,-1.785038,0.333789,-0.493876,-0.045335,45.301537,-48.959282,124.887375
00167,87900000,1970,1,1,0,0,25,0,8.728033,4.841774,1.934581,0.032007,-0.105286,-1.725471,0.356435,-0.491739,-0.046028,46.156670,-48.294056,123.775024
00168,97900000,1970,1,1,0,0,25,0,8.283018,4.862051,2.051829,-0.171272,-0.589033,-1.474821,0.345518,-0.480128,-0.046887,46.983490,-47.912926,122.535233
00169,107900000,1970,1,1,0,0,25,0,7.580288,5.059857,2.281284,-0.306339,-1.098551,-1.122744,0.357405,-0.472320,-0.053633,47.806530,-47.866035,121.192108
00170,117900000,1970,1,1,0,0,25,0,7.080586,5.578885,2.721268,-0.223513,-1.493423,-0.821694,0.343551,-0.477910,-0.059992,48.739105,-48.084644,119.767235
00171,127900000,1970,1,1,0,0,25,0,6.584234,5.856515,2.951818,0.006523,-1.688929,-0.633475,0.363547,-0.475839,-0.063496,49.834686,-48.441189,118.306870
00172,137900000,1970,1,1,0,0,25,0,5.995770,6.356221,2.797701,0.092592,-1.671656,-0.666470,0.344685,-0.470233,-0.075403,51.005398,-48.757458,116.819786
00173,147900000,1970,1,1,0,0,25,0,5.775803,6.994821,3.201220,-0.038045,-1.569290,-0.842874,0.369908,-0.470861,-0.073305,52.137363,-48.938263,115.290306
00174,157900000,1970,1,1,0,0,25,0,5.166027,7.213260,3.360040,-0.255348,-1.758685,-1.069598,0.356426,-0.468090,-0.082186,53.344891,-49.060715,113.499359
00175,167900000,1970,1,1,0,0,25,0,4.794268,7.273149,2.992157,-0.501251,-2.016903,-1.140518,0.362116,-0.477001,-0.086930,54.586708,-49.212132,111.480499
00176,177900000,1970,1,1,0,0,25,0,4.456536,7.029645,2.808651,-0.832996,-2.308460,-1.187179,0.357944,-0.463656,-0.105350,55.828613,-49.408211,109.216072
00177,187900000,1970,1,1,0,0,25,0,4.601025,7.600754,1.894231,-1.213709,-2.387494,-1.352332,0.361655,-0.458744,-0.117969,56.971466,-49.519665,106.800171
00178,197900000,1970,1,1,0,0,25,0,4.655267,8.658564,1.039700,-1.325500,-1.801228,-1.406359,0.368010,-0.447963,-0.125162,57.740631,-49.397564,104.791481
00179,207900000,1970,1,1,0,0,25,0,4.315894,9.316276,0.654153,-1.183801,-0.606282,-1.291140,0.368242,-0.451069,-0.130337,57.863342,-48.956230,103.735924
00180,217900000,1970,1,1,0,0,25,0,4.004313,9.565793,1.587861,-0.768757,0.700642,-1.063044,0.371338,-0.439808,-0.130030,57.412445,-48.226448,103.752716
00181,227900000,1970,1,1,0,0,25,0,3.496722,9.050725,2.968040,-0.158911,1.391883,-0.853121,0.390877,-0.437327,-0.125801,56.879303,-47.382698,104.352409
00182,237900000,1970,1,1,0,0,25,0,3.039770,8.240757,3.502587,0.078955,1.362914,-0.629682,0.371039,-0.445337,-0.127489,56.441620,-46.651619,105.015594
00183,247900000,1970,1,1,0,0,25,0,3.189610,7.632952,2.578930,-0.084084,0.970502,-0.581601,0.403987,-0.448460,-0.114397,56.106800,-46.065178,105.414856
00184,257900000,1970,1,1,0,0,25,0,3.609102,7.626296,2.142020,-0.344050,0.861890,-0.870519,0.390340,-0.433947,-0.115471,55.780788,-45.374847,105.598068
00185,267900000,1970,1,1,0,0,25,0,3.464878,7.821620,1.478469,-0.632928,0.700895,-1.087664,0.404426,-0.431463,-0.114286,55.442909,-44.633224,105.566200
00186,277900000,1970,1,1,0,0,25,0,3.302011,7.969320,1.045672,-0.844786,0.558002,-1.100440,0.401697,-0.428561,-0.114501,55.057388,-43.932301,105.428482
00187,287900000,1970,1,1,0,0,25,0,3.126540,8.011783,0.824840,-0.853352,0.443101,-1.000415,0.415789,-0.431879,-0.115931,54.689049,-43.316792,105.257065
00188,297900000,1970,1,1,0,0,25,0,3.326927,7.805893,0.138732,-0.749280,0.394986,-0.764445,0.410630,-0.420545,-0.118902,54.329361,-42.828106,105.158646
00189,307900000,1970,1,1,0,0,25,0,3.031362,7.799633,0.137947,-0.663258,0.556742,-0.518744,0.401850,-0.428697,-0.117079,53.876102,-42.399628,105.270378
00190,317900000,1970,1,1,0,0,25,0,3.041272,8.024499,0.806474,-0.530714,0.630468,-0.282713,0.410630,-0.420545,-0.118902,53.399364,-42.054329,105.530922
00191,327900000,1970,1,1,0,0,25,0,2.749976,8.058247,1.200040,-0.654998,0.591997,-0.083003,0.418964,-0.423588,-0.118221,52.810257,-41.812004,105.854576
00192,337900000,1970,1,1,0,0,25,0,2.694425,7.647909,1.362593,-0.954130,0.474853,0.027279,0.410105,-0.428770,-0.113801,52.066925,-41.657837,106.153732
00193,347900000,1970,1,1,0,0,25,0,2.732941,7.109824,1.701385,-1.356259,0.326357,0.028810,0.424575,-0.429529,-0.120369,51.154819,-41.553974,106.360825
00194,357900000,1970,1,1,0,0,25,0,2.971042,6.906902,2.208272,-1.661023,0.136366,0.007191,0.411013,-0.423789,-0.126654,50.151573,-41.506935,106.442406
00195,367900000,1970,1,1,0,0,25,0,3.115019,6.903169,2.519969,-1.757363,-0.177739,-0.013896,0.422449,-0.421372,-0.128281,49.222321,-41.566044,106.329147
00196,377900000,1970,1,1,0,0,25,0,3.051460,6.829388,2.983551,-1.805146,-0.570032,0.028204,0.409131,-0.430342,-0.144969,48.401680,-41.792583,106.011627
00197,387900000,1970,1,1,0,0,25,0,3.256073,6.916895,3.572404,-1.815961,-1.060282,0.062656,0.403977,-0.424811,-0.150554,47.751022,-42.224453,105.432922
00198,397900000,1970,1,1,0,0,25,0,3.374861,7.253974,3.686549,-1.779214,-1.420392,0.059893,0.399506,-0.416994,-0.166433,47.264805,-42.798710,104.647598
00199,407900000,1970,1,1,0,0,25,0,3.031343,7.775669,3.140118,-1.716327,-1.338362,0.105307,0.400043,-0.420374,-0.176763,46.771957,-43.364819,103.933105
00200,417900000,1970,1,1,0,0,25,0,2.743173,8.164701,2.902632,-1.638923,-0.864878,0.300239,0.383916,-0.423472,-0.191070,46.066219,-43.830196,103.598366
00201,427900000,1970,1,1,0,0,25,0,2.526999,7.923984,2.769073,-1.513806,-0.334169,0.518314,0.381040,-0.426235,-0.191321,45.134777,-44.175446,103.694206
00202,437900000,1970,1,1,0,0,25,0,2.489503,7.469965,2.705062,-1.343315,0.074849,0.725343,0.381497,-0.426645,-0.199055,44.051373,-44.435802,104.146942
00203,447900000,1970,1,1,0,0,25,0,2.371140,6.933177,2.631812,-0.968787,0.373049,0.879347,0.370586,-0.420838,-0.202529,42.996662,-44.626926,104.862923
00204,457900000,1970,1,1,0,0,25,0,1.951067,6.567200,3.198369,-0.692950,0.526045,1.105567,0.364529,-0.426090,-0.197876,41.939819,-44.831429,105.804077
00205,467900000,1970,1,1,0,0,25,0,1.501607,6.338639,4.033981,-0.465495,0.563552,1.405384,0.372266,-0.440190,-0.192113,40.860897,-45.120892,106.956779
00206,477900000,1970,1,1,0,0,25,0,1.351415,6.281645,5.366817,-0.113168,0.394410,1.804787,0.344782,-0.448674,-0.207390,39.854282,-45.617554,108.283638
00207,487900000,1970,1,1,0,0,25,0,1.119874,6.150197,6.666489,0.319706,0.053139,2.198908,0.340693,-0.456145,-0.189633,39.014351,-46.393551,109.709267
00208,497900000,1970,1,1,0,0,25,0,1.049872,6.067902,7.119344,0.655650,-0.216850,2.518966,0.329122,-0.475832,-0.193273,38.273468,-47.391132,111.242065
00209,507900000,1970,1,1,0,0,25,0,1.344515,6.249731,6.652379,0.440664,-0.080016,2.569985,0.317765,-0.481218,-0.194243,37.275524,-48.328674,112.931633
00210,517900000,1970,1,1,0,0,25,0,1.229885,6.464247,6.373896,0.112855,-0.015359,2.493999,0.292029,-0.500419,-0.196471,36.043617,-49.188217,114.659142
00211,527900000,1970,1,1,0,0,25,0,0.799411,6.717149,6.196320,-0.210844,-0.049329,2.515181,0.294679,-0.500352,-0.193660,34.564396,-50.043465,116.445618
00212,537900000,1970,1,1,0,0,25,0,0.572770,6.671972,5.657901,-0.476132,-0.250072,2.610399,0.267111,-0.500065,-0.203726,32.883282,-50.992371,118.273331
00213,547900000,1970,1,1,0,0,25,0,0.545464,6.265934,4.318696,-0.844780,-0.397691,2.783463,0.252652,-0.510910,-0.202388,30.852440,-52.027309,120.252487
00214,557900000,1970,1,1,0,0,25,0,0.567038,5.393500,3.842989,-1.153620,-0.385786,2.977693,0.227960,-0.507860,-0.212202,28.403561,-53.062450,122.507530
00215,567900000,1970,1,1,0,0,25,0,1.089496,4.667586,3.177406,-1.262847,-0.270573,3.133634,0.219411,-0.519118,-0.215553,25.615864,-54.015610,125.076759
00216,577900000,1970,1,1,0,0,25,0,0.843240,4.365322,4.295953,-1.072297,-0.194790,3.231037,0.186463,-0.515995,-0.228644,22.707708,-54.874943,127.898872
00217,587900000,1970,1,1,0,0,25,0,0.936630,4.608079,5.216794,-0.450889,-0.279320,3.357358,0.177830,-0.518482,-0.226784,19.951338,-55.723648,130.939926
00218,597900000,1970,1,1,0,0,25,0,1.405420,3.812558,4.598738,-0.207457,-0.344092,3.543608,0.147001,-0.517714,-0.229350,17.061909,-56.555161,134.278915
00219,607900000,1970,1,1,0,0,25,0,1.702370,3.535097,4.397980,-0.272720,-0.380340,3.654492,0.135193,-0.528492,-0.225201,13.900544,-57.324352,137.866959
00220,617900000,1970,1,1,0,0,25,0,1.076584,3.770552,3.388113,-0.031129,-0.282287,3.723099,0.098912,-0.527721,-0.230810,10.654320,-57.936398,141.691666
00221,627900000,1970,1,1,0,0,25,0,0.813754,3.886742,2.380035,0.279098,0.130960,3.913899,0.090047,-0.527101,-0.223776,7.245798,-58.211525,145.898453
00222,637900000,1970,1,1,0,0,25,0,0.831618,3.165300,1.978817,0.067523,0.518881,4.202533,0.062253,-0.529510,-0.231282,3.382273,-58.138927,150.493256
00223,647900000,1970,1,1,0,0,25,0,0.929025,2.294874,2.149214,-0.507026,0.576943,4.300422,0.056197,-0.534762,-0.226630,-0.857210,-57.863186,155.151825
00224,657900000,1970,1,1,0,0,25,0,1.264591,1.182533,2.247863,-0.938427,0.522520,4.333974,0.029226,-0.523417,-0.241777,-5.279127,-57.431873,159.751831
00225,667900000,1970,1,1,0,0,25,0,1.686126,0.175315,2.264511,-0.872122,0.775864,4.396527,0.011948,-0.516786,-0.232828,-9.539479,-56.666748,164.235397
00226,677900000,1970,1,1,0,0,25,0,1.702661,-0.194608,3.114110,-0.641707,1.021473,4.391262,-0.009869,-0.510972,-0.242390,-13.402734,-55.593422,168.447464
00227,687900000,1970,1,1,0,0,25,0,1.541988,-0.048567,4.304642,-0.525106,1.046204,4.480802,-0.015474,-0.510832,-0.242857,-17.008871,-54.342339,172.486130
00228,697900000,1970,1,1,0,0,25,0,1.138297,0.012374,5.117908,-0.310682,0.988265,4.595291,-0.040630,-0.501569,-0.242322,-20.326326,-52.964020,176.386032
00229,707900000,1970,1,1,0,0,25,0,0.690230,-0.346231,5.652996,-0.039578,0.973436,4.727170,-0.052139,-0.506819,-0.240714,-23.319530,-51.440361,-179.852478
00230,717900000,1970,1,1,0,0,25,0,0.062354,-1.201689,5.582011,0.217418,0.969592,4.888357,-0.071165,-0.489470,-0.244814,-26.008141,-49.767757,-176.209900
00231,727900000,1970,1,1,0,0,25,0,-0.036822,-2.527076,4.969969,0.520051,1.084479,4.938494,-0.086453,-0.508266,-0.233220,-28.263447,-47.925381,-172.816483
00232,737900000,1970,1,1,0,0,25,0,0.047487,-3.074073,3.977373,0.674971,1.250249,4.806690,-0.110706,-0.488219,-0.242923,-30.073193,-45.958950,-169.807739
00233,747900000,1970,1,1,0,0,25,0,-0.357478,-3.178425,3.210166,0.655023,1.580061,4.666223,-0.108434,-0.490711,-0.234974,-31.520313,-43.813923,-167.222565
00234,757900000,1970,1,1,0,0,25,0,-0.975687,-3.382311,3.828388,0.451593,1.813049,4.611734,-0.127832,-0.481724,-0.236551,-32.810562,-41.529434,-164.934341
00235,767900000,1970,1,1,0,0,25,0,-1.523700,-3.558328,4.827186,0.012827,1.818538,4.630666,-0.128143,-0.475648,-0.228781,-34.191910,-39.197769,-162.787125
00236,777900000,1970,1,1,0,0,25,0,-1.994381,-4.015148,5.494240,-0.427271,1.809726,4.597790,-0.158739,-0.477987,-0.236520,-35.658485,-36.841099,-160.800415
00237,787900000,1970,1,1,0,0,25,0,-2.325085,-4.973378,5.554311,-1.006745,1.797977,4.466004,-0.150185,-0.472531,-0.235784,-37.270226,-34.493534,-159.022278
00238,797900000,1970,1,1,0,0,25,0,-2.870127,-6.181379,7.018780,-1.685963,1.679241,4.273703,-0.182529,-0.464153,-0.256572,-39.109173,-32.225143,-157.431412
00239,807900000,1970,1,1,0,0,25,0,-3.409199,-6.071494,8.149633,-1.999615,1.402318,4.195335,-0.162246,-0.444949,-0.257388,-41.051304,-30.064417,-155.887878
00240,817900000,1970,1,1,0,0,25,0,-5.741143,-3.243440,10.680283,-1.006493,0.910945,5.057911,-0.204211,-0.441069,-0.260868,-42.625599,-27.744019,-153.820190
00241,827900000,1970,1,1,0,0,25,0,-3.441836,-11.010259,8.822579,-0.428937,0.679172,5.283058,-0.207318,-0.440725,-0.255945,-43.838612,-25.388552,-151.653275
00242,837900000,1970,1,1,0,0,25,0,-1.880673,-10.252103,12.204747,-0.539245,0.155057,4.333840,-0.231267,-0.420952,-0.270804,-44.925377,-23.589746,-149.772141
00243,847900000,1970,1,1,0,0,25,0,-3.623963,-5.688302,9.643681,-0.605017,-0.663552,3.889165,-0.240363,-0.417225,-0.258596,-46.045364,-22.268793,-147.782043
00244,857900000,1970,1,1,0,0,25,0,-4.176828,-5.641669,8.800569,-1.139532,-0.670696,4.298497,-0.259609,-0.408375,-0.262751,-47.471210,-20.739313,-145.668228
00245,867900000,1970,1,1,0,0,25,0,-3.362000,-6.000578,9.237157,-1.714630,-0.573621,4.515969,-0.270373,-0.396902,-0.266188,-49.162693,-19.026789,-143.577972
00246,877900000,1970,1,1,0,0,25,0,-2.936123,-6.604315,8.132708,-2.088871,-0.277106,4.786829,-0.303412,-0.379204,-0.271453,-50.970173,-17.026968,-141.599030
00247,887900000,1970,1,1,0,0,25,0,-2.961886,-7.654826,9.286255,-2.114895,0.133068,5.002736,-0.310697,-0.359713,-0.282335,-52.666962,-14.727999,-139.819626
00248,897900000,1970,1,1,0,0,25,0,-3.461605,-9.828654,10.314558,-1.908044,0.257356,5.007572,-0.329278,-0.331170,-0.288939,-54.141487,-12.337843,-138.182434
00249,907900000,1970,1,1,0,0,25,0,-4.886861,-12.118065,10.811368,-1.714220,0.115196,4.574832,-0.343601,-0.324745,-0.282334,-55.411682,-10.159774,-136.696259
00250,917900000,1970,1,1,0,0,25,0,-5.393255,-12.014568,10.747945,-1.444114,0.098437,3.891737,-0.373837,-0.307117,-0.287366,-56.432266,-8.282540,-135.477997
00251,927900000,1970,1,1,0,0,25,0,-4.551946,-10.605894,12.197821,-1.476601,0.070914,3.446587,-0.362176,-0.302005,-0.291552,-57.412640,-6.606865,-134.425522
00252,937900000,1970,1,1,0,0,25,0,-3.588569,-8.587549,15.330224,-1.601127,-0.437972,3.256156,-0.375602,-0.278993,-0.292571,-58.451935,-5.160273,-133.216064
00253,947900000,1970,1,1,0,0,25,0,-3.806005,-7.431715,15.473326,-1.413919,-1.261170,3.254175,-0.392649,-0.275468,-0.288796,-59.385731,-3.937585,-131.629700
00254,957900000,1970,1,1,0,0,25,0,-4.179629,-8.043612,13.776690,-1.081807,-1.910070,3.296155,-0.409335,-0.251977,-0.282314,-60.115993,-2.858532,-129.729614
00255,967900000,1970,1,1,0,0,25,0,-4.991984,-9.226669,12.253698,-0.941154,-2.243264,3.198164,-0.415409,-0.239822,-0.269817,-60.736988,-1.900227,-127.705620
00256,977900000,1970,1,1,0,0,25,0,-5.319651,-8.923817,10.964849,-0.331779,-2.515893,2.980627,-0.440497,-0.221923,-0.266649,-60.979706,-1.111627,-125.614174
00257,987900000,1970,1,1,0,0,25,0,-5.541375,-7.899075,11.004545,0.781875,-2.727323,2.913009,-0.447621,-0.226218,-0.243952,-60.558376,-0.419242,-123.435211
00258,997900000,1970,1,1,0,0,25,0,-5.658721,-7.048786,9.986369,1.761101,-2.965263,2.929414,-0.473611,-0.219103,-0.230546,-59.551491,0.186026,-121.125168
00259,7900000,1970,1,1,0,0,26,0,-5.240051,-5.269293,9.723518,2.703751,-3.132840,2.952053,-0.483177,-0.203361,-0.205375,-57.981052,0.700493,-118.713242
00260,17900000,1970,1,1,0,0,26,0,-5.219559,-3.190913,9.020040,3.955483,-3.237044,3.342570,-0.498262,-0.196252,-0.185881,-55.666767,1.287521,-116.112617
00261,27900000,1970,1,1,0,0,26,0,-5.898632,-2.042870,7.798525,5.401886,-2.642811,4.113252,-0.514482,-0.196820,-0.150975,-52.486794,2.306570,-113.502724
00262,37900000,1970,1,1,0,0,26,0,-6.975294,-3.184704,7.308440,7.186806,-2.560533,4.736031,-0.529579,-0.178106,-0.126252,-48.221542,3.458847,-110.638756
00263,47900000,1970,1,1,0,0,26,0,-7.485990,-4.976728,9.433912,8.801833,-1.683146,5.174406,-0.531182,-0.173768,-0.097876,-42.974129,4.901273,-107.869141
00264,57900000,1970,1,1,0,0,26,0,-8.134266,-7.236386,11.814604,9.725669,-0.986850,5.209815,-0.545364,-0.155875,-0.088620,-37.137562,6.388372,-105.210602
00265,67900000,1970,1,1,0,0,26,0,-8.144849,-8.379526,11.391716,9.352562,-0.549489,5.092902,-0.549629,-0.139999,-0.057827,-31.455242,7.771528,-102.606056
00266,77900000,1970,1,1,0,0,26,0,-7.669020,-9.524296,8.872602,7.922043,0.184867,4.889213,-0.571610,-0.122444,-0.059581,-26.555933,9.221652,-100.182877
00267,87900000,1970,1,1,0,0,26,0,-6.889093,-8.697304,7.906303,3.970503,0.978277,4.571535,-0.574131,-0.099438,-0.054511,-23.902521,10.844579,-98.022652
00268,97900000,1970,1,1,0,0,26,0,-6.598727,-5.662713,7.728192,1.604338,1.186005,4.178315,-0.583920,-0.074348,-0.068167,-22.584618,12.413301,-96.051964
00269,107900000,1970,1,1,0,0,26,0,-7.807072,-3.093941,9.414132,0.488014,1.384404,4.146472,-0.566128,-0.061151,-0.076987,-21.857498,14.045792,-94.102356
00270,117900000,1970,1,1,0,0,26,0,-9.401771,-2.491682,10.625772,-0.595457,1.436206,4.480016,-0.567448,-0.021832,-0.084696,-21.644356,15.761338,-91.954041
00271,127900000,1970,1,1,0,0,26,0,-10.655930,-2.635016,11.509968,-1.618386,1.360292,4.834219,-0.580569,0.000905,-0.090870,-21.888369,17.512722,-89.570839
00272,137900000,1970,1,1,0,0,26,0,-11.287131,-4.790694,13.104434,-1.897351,1.301309,5.019796,-0.567571,0.039601,-0.102568,-22.180578,19.283875,-87.057755
00273,147900000,1970,1,1,0,0,26,0,-10.638901,-5.213622,15.185906,-1.293950,1.194209,5.029101,-0.555780,0.067786,-0.098873,-22.035780,21.003824,-84.488846
00274,157900000,1970,1,1,0,0,26,0,-9.768371,-4.758627,14.480517,-0.615290,1.050542,4.974097,-0.565270,0.098405,-0.115070,-21.416229,22.619917,-81.877556
00275,167900000,1970,1,1,0,0,26,0,-8.863406,-5.034746,13.186634,0.114558,1.101528,4.689604,-0.549920,0.131639,-0.121416,-20.359934,24.169853,-79.388382
00276,177900000,1970,1,1,0,0,26,0,-8.871256,-4.054418,11.858698,0.736361,1.520470,4.388828,-0.548651,0.156586,-0.131561,-18.968288,25.838896,-77.098801
00277,187900000,1970,1,1,0,0,26,0,-9.738019,-3.028760,11.174729,0.700368,1.955192,4.220743,-0.542375,0.170337,-0.136158,-17.584476,27.663851,-74.920998
00278,197900000,1970,1,1,0,0,26,0,-10.319701,-2.019510,11.823057,-0.033478,2.073709,4.171812,-0.534739,0.194461,-0.158726,-16.546406,29.504467,-72.716545
00279,207900000,1970,1,1,0,0,26,0,-10.979492,-1.231715,14.374553,-1.384148,1.637546,4.281365,-0.512274,0.225747,-0.143768,-16.115412,31.098408,-70.295853
00280,217900000,1970,1,1,0,0,26,0,-13.044071,-0.056277,15.425466,-1.799025,1.082676,4.767303,-0.502597,0.250486,-0.153214,-15.620426,32.446060,-67.403160
00281,227900000,1970,1,1,0,0,26,0,-14.435655,0.228859,15.055202,0.064234,1.281747,5.183780,-0.481721,0.286549,-0.156498,-13.821978,33.915794,-64.192764
00282,237900000,1970,1,1,0,0,26,0,-12.866323,-1.162010,16.536871,3.279123,1.342084,4.897477,-0.474164,0.313643,-0.176470,-10.153824,35.256065,-61.049850
00283,247900000,1970,1,1,0,0,26,0,-11.438238,-2.642749,17.868982,4.936470,0.588108,4.409746,-0.447654,0.320555,-0.192361,-5.559307,35.940186,-58.025738
00284,257900000,1970,1,1,0,0,26,0,-9.377631,-3.024733,16.492743,6.003884,-1.321548,4.136787,-0.423874,0.330370,-0.208466,-0.388212,35.311153,-55.063267
00285,267900000,1970,1,1,0,0,26,0,-9.962214,-1.589506,12.814872,3.752758,-0.878588,4.228370,-0.400331,0.349094,-0.216783,3.455415,34.746613,-52.120556
00286,277900000,1970,1,1,0,0,26,0,-10.800806,0.291028,11.782321,1.547517,-0.424129,3.832899,-0.393896,0.356905,-0.226573,5.839109,34.330284,-49.485806
00287,287900000,1970,1,1,0,0,26,0,-10.728343,1.633783,10.460433,0.299204,-0.592680,3.514738,-0.359594,0.369958,-0.228838,7.339546,33.766380,-47.118156
00288,297900000,1970,1,1,0,0,26,0,-12.140323,3.340768,10.869450,-1.165985,-0.885158,3.552859,-0.356357,0.392687,-0.225879,7.960119,32.998245,-44.781815
00289,307900000,1970,1,1,0,0,26,0,-12.869021,5.499614,12.489829,-2.616720,-1.202873,3.996197,-0.325626,0.412296,-0.212873,7.850028,32.007542,-42.204082
00290,317900000,1970,1,1,0,0,26,0,-12.392866,5.345492,13.905869,-3.429955,-1.579307,4.431512,-0.308986,0.435224,-0.198437,7.354219,30.782925,-39.393681
00291,327900000,1970,1,1,0,0,26,0,-12.319894,4.370866,15.046318,-3.454085,-2.073090,4.552384,-0.278925,0.440942,-0.180367,6.795924,29.292175,-36.569805
00292,337900000,1970,1,1,0,0,26,0,-12.451156,3.341426,14.427434,-2.889124,-2.689015,4.559172,-0.262280,0.458067,-0.168546,6.456804,27.470648,-33.819225
00293,347900000,1970,1,1,0,0,26,0,-12.493142,2.681025,12.159678,-2.278348,-3.020727,4.646285,-0.245769,0.457922,-0.161991,6.383907,25.464907,-31.076647
00294,357900000,1970,1,1,0,0,26,0,-12.237040,3.027381,10.643603,-1.541523,-2.906726,4.764668,-0.240096,0.466418,-0.158891,6.662967,23.514223,-28.300854
00295,367900000,1970,1,1,0,0,26,0,-12.159842,3.537584,10.332730,-1.109742,-2.568570,4.711285,-0.213442,0.466951,-0.133359,7.085447,21.746929,-25.584862
00296,377900000,1970,1,1,0,0,26,0,-11.859515,4.454030,10.879627,-1.187544,-2.364543,4.670897,-0.215793,0.472413,-0.138711,7.370871,20.086088,-22.920761
00297,387900000,1970,1,1,0,0,26,0,-11.494266,5.555804,11.643847,-1.235222,-2.389577,4.983162,-0.193537,0.483596,-0.129038,7.607158,18.379251,-20.108217
00298,397900000,1970,1,1,0,0,26,0,-11.547206,5.348733,12.252976,-1.364817,-2.130307,5.545132,-0.188321,0.492502,-0.118204,7.792421,16.769382,-16.972389
00299,407900000,1970,1,1,0,0,26,0,-11.052040,4.719071,12.950936,-1.586186,-1.759610,5.757972,-0.161069,0.504093,-0.097753,7.810187,15.350807,-13.709468
00300,417900000,1970,1,1,0,0,26,0,-10.222916,3.952724,13.467854,-1.498323,-1.827046,5.652185,-0.155634,0.521498,-0.086865,7.780129,13.904962,-10.535009
00301,427900000,1970,1,1,0,0,26,0,-9.615351,3.303248,13.238335,-1.388985,-2.058079,5.528991,-0.119285,0.529362,-0.078622,7.709775,12.342279,-7.471318
00302,437900000,1970,1,1,0,0,26,0,-9.679807,3.216156,12.621792,-1.333147,-2.209414,5.505945,-0.102939,0.540959,-0.064259,7.582038,10.702634,-4.447379
00303,447900000,1970,1,1,0,0,26,0,-9.961717,3.138398,11.409469,-1.183618,-2.145578,5.456687,-0.086897,0.552829,-0.044741,7.452688,9.111978,-1.460930
00304,457900000,1970,1,1,0,0,26,0,-9.243224,3.042757,10.154336,-1.092579,-1.866062,5.357112,-0.067132,0.558006,-0.043072,7.294383,7.697744,1.479895
00305,467900000,1970,1,1,0,0,26,0,-7.468233,2.347342,10.082584,-1.292071,-1.358232,5.180422,-0.028292,0.571877,-0.026826,6.952400,6.600202,4.352883
00306,477900000,1970,1,1,0,0,26,0,-7.285618,1.390885,11.767558,-1.325707,-1.413968,4.910731,-0.011257,0.579956,-0.025371,6.522685,5.509991,7.070169
00307,487900000,1970,1,1,0,0,26,0,-8.575683,0.941034,12.628309,-1.184610,-1.690685,4.450403,0.022289,0.587891,-0.017361,6.097928,4.313106,9.507486
00308,497900000,1970,1,1,0,0,26,0,-9.181933,1.495880,12.634863,-1.126383,-1.997561,3.983510,0.027584,0.593827,-0.009125,5.636696,2.990437,11.666361
00309,507900000,1970,1,1,0,0,26,0,-8.513440,2.351302,11.327345,-1.032782,-1.941124,3.743266,0.063414,0.587665,0.001604,5.177191,1.734046,13.696171
00310,517900000,1970,1,1,0,0,26,0,-6.988953,2.763996,10.150136,-1.201111,-1.649751,3.752534,0.074990,0.601549,0.002629,4.583218,0.665807,15.758234
00311,527900000,1970,1,1,0,0,26,0,-6.324879,2.428496,10.540546,-1.323859,-1.426524,3.862725,0.107950,0.586821,0.010491,3.886598,-0.253742,17.900951
00312,537900000,1970,1,1,0,0,26,0,-5.881763,2.623683,10.628403,-1.230373,-1.410542,3.848475,0.119233,0.589375,0.011442,3.212892,-1.135852,20.049656
00313,547900000,1970,1,1,0,0,26,0,-5.517939,4.331720,11.411001,-1.273175,-1.384570,3.767373,0.152334,0.586115,0.021956,2.486739,-1.972637,22.160955
00314,557900000,1970,1,1,0,0,26,0,-5.906184,3.956092,11.171882,-1.325865,-1.494879,3.733109,0.163544,0.585836,0.022888,1.704050,-2.842335,24.264193
00315,567900000,1970,1,1,0,0,26,0,-5.792917,3.227992,7.746583,-1.307560,-1.385484,3.818058,0.199520,0.585339,0.033654,0.902707,-3.619439,26.427885
00316,577900000,1970,1,1,0,0,26,0,-5.057258,3.734604,5.300571,-2.113207,-0.803002,3.961641,0.215433,0.574136,0.045290,-0.384852,-4.022053,28.693468
00317,587900000,1970,1,1,0,0,26,0,-4.643552,2.821538,7.527328,-2.244721,-0.370028,3.931070,0.242776,0.571153,0.057915,-1.751933,-4.123736,30.945566
00318,597900000,1970,1,1,0,0,26,0,-4.932822,2.591868,8.874357,-2.594668,-0.004165,3.963638,0.258316,0.551589,0.072075,-3.314700,-3.957239,33.210987
00319,607900000,1970,1,1,0,0,26,0,-4.508708,1.589557,10.898882,-3.176505,-0.039834,4.105172,0.288225,0.557444,0.092722,-5.203881,-3.736575,35.554192
00320,617900000,1970,1,1,0,0,26,0,-4.135057,0.221293,12.075045,-3.387466,-0.291090,4.105853,0.312404,0.534564,0.102407,-7.202493,-3.579698,37.905655
00321,627900000,1970,1,1,0,0,26,0,-3.294495,-0.836138,12.203321,-3.309350,-0.508190,3.830627,0.339070,0.523493,0.122710,-9.138820,-3.488028,40.115116
00322,637900000,1970,1,1,0,0,26,0,-2.880689,-1.168925,12.569015,-3.162109,-0.755611,3.444228,0.340677,0.501308,0.133107,-10.974539,-3.502714,42.128174
00323,647900000,1970,1,1,0,0,26,0,-3.232927,-0.325630,13.026783,-3.018862,-0.989321,3.167373,0.362634,0.506963,0.145321,-12.719985,-3.618965,44.012943
00324,657900000,1970,1,1,0,0,26,0,-3.745222,0.590925,13.304998,-2.960231,-1.144686,3.128809,0.381429,0.492721,0.154595,-14.432927,-3.770414,45.900486
00325,667900000,1970,1,1,0,0,26,0,-4.506173,1.349918,13.484871,-2.890324,-1.212372,3.302996,0.399857,0.464315,0.163776,-16.112846,-3.877171,47.901005
00326,677900000,1970,1,1,0,0,26,0,-4.671313,1.729766,14.442537,-2.900281,-1.200713,3.516636,0.416226,0.452702,0.167680,-17.802786,-3.882834,50.021904
00327,687900000,1970,1,1,0,0,26,0,-4.509474,1.204746,15.177938,-2.963165,-1.274290,3.738607,0.431919,0.433001,0.179261,-19.530178,-3.824704,52.274696
00328,697900000,1970,1,1,0,0,26,0,-4.315714,-0.241730,15.472193,-3.007876,-1.407590,3.857952,0.459279,0.412610,0.184042,-21.279560,-3.746721,54.616070
00329,707900000,1970,1,1,0,0,26,0,-4.141161,-1.764903,15.107722,-2.960288,-1.569870,3.839509,0.464451,0.389672,0.181783,-22.994318,-3.689316,56.981606
00330,717900000,1970,1,1,0,0,26,0,-3.959478,-3.051590,14.251711,-2.987520,-1.751338,3.675313,0.488783,0.366655,0.188889,-24.715792,-3.695686,59.298794
00331,727900000,1970,1,1,0,0,26,0,-4.207717,-3.325681,13.557839,-3.155573,-1.893522,3.516048,0.507961,0.349169,0.190411,-26.527981,-3.745129,61.570507
00332,737900000,1970,1,1,0,0,26,0,-4.398840,-3.493485,12.721001,-3.415489,-1.966669,3.425225,0.518585,0.326228,0.191196,-28.485790,-3.782373,63.815502
00333,747900000,1970,1,1,0,0,26,0,-4.585860,-3.482149,12.634198,-3.624889,-2.002685,3.319501,0.532011,0.303217,0.192215,-30.558611,-3.789606,66.018578
00334,757900000,1970,1,1,0,0,26,0,-4.809154,-3.054652,12.702905,-3.794031,-2.113792,3.237243,0.539979,0.286011,0.192803,-32.724762,-3.795154,68.214882
00335,767900000,1970,1,1,0,0,26,0,-4.882113,-2.658928,12.189903,-3.864637,-2.252870,3.211123,0.553790,0.259756,0.186070,-34.929493,-3.792299,70.440262
00336,777900000,1970,1,1,0,0,26,0,-5.237454,-2.484974,11.574259,-3.892569,-2.378086,3.235572,0.559260,0.242346,0.181269,-37.148525,-3.754219,72.721413
00337,787900000,1970,1,1,0,0,26,0,-5.605535,-2.547703,11.068414,-4.007644,-2.509001,3.314598,0.586778,0.216016,0.180857,-39.431519,-3.658363,75.079201
00338,797900000,1970,1,1,0,0,26,0,-5.184763,-2.779567,10.631745,-4.237560,-2.722326,3.412731,0.595593,0.189354,0.163346,-41.844437,-3.523047,77.556824
00339,807900000,1970,1,1,0,0,26,0,-5.342268,-3.318393,9.750245,-4.300410,-2.965044,3.502033,0.609178,0.160404,0.159171,-44.289993,-3.351426,80.161751
00340,817900000,1970,1,1,0,0,26,0,-5.705362,-4.071957,8.568515,-4.227378,-3.111751,3.552123,0.601324,0.139826,0.140298,-46.684803,-3.110657,82.836739
00341,827900000,1970,1,1,0,0,26,0,-5.550846,-4.772192,7.293828,-4.201791,-3.149513,3.516445,0.609224,0.113984,0.138253,-49.048931,-2.790775,85.502518
00342,837900000,1970,1,1,0,0,26,0,-5.425679,-5.101348,6.768163,-4.102436,-3.160660,3.408431,0.616072,0.089541,0.107637,-51.336571,-2.416765,88.117554
00343,847900000,1970,1,1,0,0,26,0,-5.358419,-5.177742,5.814544,-3.950177,-3.182876,3.283261,0.629956,0.066119,0.100922,-53.516468,-2.007946,90.690102
00344,857900000,1970,1,1,0,0,26,0,-5.335014,-5.377954,4.847732,-3.832300,-3.116326,3.141381,0.630504,0.051134,0.085363,-55.606468,-1.549913,93.164917
00345,867900000,1970,1,1,0,0,26,0,-5.181692,-5.629868,3.729333,-3.833173,-2.968922,2.977667,0.644923,0.024332,0.068317,-57.673721,-1.036133,95.501137
00346,877900000,1970,1,1,0,0,26,0,-4.922342,-5.912758,3.099864,-3.878615,-2.755305,2.810947,0.634786,0.017851,0.046725,-59.744308,-0.457873,97.667908
00347,887900000,1970,1,1,0,0,26,0,-4.665181,-5.865586,3.251020,-3.794110,-2.528284,2.648739,0.640939,0.002727,0.031631,-61.745506,0.178253,99.656281
00348,897900000,1970,1,1,0,0,26,0,-4.481083,-5.753781,3.498140,-3.654652,-2.304934,2.540756,0.635729,-0.011982,0.018183,-63.647133,0.884470,101.482971
00349,907900000,1970,1,1,0,0,26,0,-4.081794,-6.073424,3.444665,-3.572990,-2.123731,2.406280,0.636271,-0.021164,0.005239,-65.483910,1.624083,103.162674
00350,917900000,1970,1,1,0,0,26,0,-3.764827,-6.362977,3.057877,-3.530999,-1.901940,2.216445,0.634169,-0.036216,-0.013132,-67.283005,2.367023,104.661118
00351,927900000,1970,1,1,0,0,26,0,-3.795793,-6.099154,3.554827,-3.676734,-1.744846,2.072104,0.637135,-0.048028,-0.020706,-69.154816,3.113394,106.027077
00352,937900000,1970,1,1,0,0,26,0,-4.348967,-5.946840,3.750953,-3.760097,-1.619366,2.081672,0.629112,-0.051062,-0.029158,-71.062614,3.933417,107.303574
00353,947900000,1970,1,1,0,0,26,0,-4.508004,-6.487116,3.633799,-3.608742,-1.434626,2.171640,0.624139,-0.074679,-0.050395,-72.873329,4.876361,108.472252
00354,957900000,1970,1,1,0,0,26,0,-4.328497,-7.539230,3.222303,-3.444848,-1.249853,2.165084,0.632925,-0.072329,-0.054833,-74.583527,5.881094,109.517975
00355,967900000,1970,1,1,0,0,26,0,-3.888848,-8.359529,2.738602,-3.290875,-1.003681,1.985046,0.624461,-0.092360,-0.063395,-76.210083,6.851827,110.370033
00356,977900000,1970,1,1,0,0,26,0,-3.500683,-8.674879,2.610677,-3.043121,-0.790762,1.624331,0.625370,-0.087378,-0.076248,-77.707626,7.671687,111.035637
00357,987900000,1970,1,1,0,0,26,0,-3.248509,-8.586725,2.786804,-2.722785,-0.652948,1.155788,0.630676,-0.093047,-0.073240,-79.036484,8.260625,111.551064
00358,997900000,1970,1,1,0,0,26,0,-2.986098,-8.031301,3.072762,-2.487602,-0.585535,0.723988,0.612119,-0.087714,-0.090303,-80.242004,8.624470,111.968498
00359,7900000,1970,1,1,0,0,27,0,-2.850422,-7.271449,3.310052,-2.334195,-0.573501,0.352249,0.614629,-0.099115,-0.090144,-81.366226,8.787553,112.344116
00360,17900000,1970,1,1,0,0,27,0,-2.961555,-6.227872,3.480983,-2.386478,-0.662117,0.057208,0.612954,-0.085565,-0.103174,-82.516846,8.783574,112.739922
00361,27900000,1970,1,1,0,0,27,0,-3.171139,-5.245325,3.628959,-2.678361,-0.830171,-0.169074,0.618864,-0.085978,-0.107863,-83.823112,8.648010,113.219154
00362,37900000,1970,1,1,0,0,27,0,-3.139048,-3.996725,3.648857,-2.970376,-1.017092,-0.316845,0.613936,-0.077751,-0.116008,-85.282585,8.429813,113.798737
00363,47900000,1970,1,1,0,0,27,0,-3.079547,-3.249956,3.534139,-3.129098,-1.228339,-0.400490,0.620456,-0.078711,-0.131009,-86.817009,8.170701,114.502968
00364,57900000,1970,1,1,0,0,27,0,-3.048245,-2.644517,3.352763,-3.147396,-1.475029,-0.498738,0.608169,-0.053825,-0.150054,-88.344368,7.867996,115.353661
00365,67900000,1970,1,1,0,0,27,0,-3.281848,-1.706744,2.728181,-3.055862,-1.676313,-0.537976,0.614147,-0.045603,-0.152110,-89.806747,7.562592,116.330215
00366,77900000,1970,1,1,0,0,27,0,-3.570147,-0.656684,1.606869,-2.811541,-1.681152,-0.491570,0.601646,-0.035018,-0.173825,-91.132744,7.307393,117.310471
00367,87900000,1970,1,1,0,0,27,0,-3.796471,0.390401,0.504705,-2.439287,-1.475898,-0.371388,0.607562,-0.041234,-0.181129,-92.264977,7.138927,118.180565
00368,97900000,1970,1,1,0,0,27,0,-3.889116,1.114814,-0.214900,-1.984024,-1.183447,-0.180997,0.597694,-0.013174,-0.192189,-93.161705,7.088176,118.875580
00369,107900000,1970,1,1,0,0,27,0,-3.745923,1.215008,-0.124405,-1.704502,-0.972626,0.081451,0.597937,-0.027885,-0.202593,-93.917480,7.191960,119.444275
00370,117900000,1970,1,1,0,0,27,0,-3.522390,0.586240,0.213344,-1.815406,-0.949652,0.437104,0.584742,-0.007980,-0.208785,-94.741676,7.507748,119.982658
00371,127900000,1970,1,1,0,0,27,0,-3.504575,-0.646783,0.307638,-2.241657,-1.008438,0.759328,0.590810,-0.014333,-0.218667,-95.807289,8.020875,120.536308
00372,137900000,1970,1,1,0,0,27,0,-3.139838,-1.993483,-0.264750,-2.694820,-1.175232,0.898709,0.580441,-0.017707,-0.235086,-97.118263,8.636673,121.166832
00373,147900000,1970,1,1,0,0,27,0,-3.550808,-3.119164,-1.526764,-2.950480,-1.327811,0.862844,0.589069,-0.009418,-0.234331,-98.559692,9.259125,121.878731
00374,157900000,1970,1,1,0,0,27,0,-3.870520,-3.399520,-2.111208,-3.217692,-1.425243,0.666766,0.575885,-0.001118,-0.245753,-100.140778,9.798543,122.646454
00375,167900000,1970,1,1,0,0,27,0,-4.142261,-2.896059,-2.269395,-3.290430,-1.576400,0.536769,0.573839,0.004070,-0.256261,-101.745422,10.302450,123.506020
00376,177900000,1970,1,1,0,0,27,0,-4.592956,-2.198852,-2.926680,-3.109041,-1.687046,0.543481,0.566706,0.023424,-0.269720,-103.233185,10.846999,124.415421
00377,187900000,1970,1,1,0,0,27,0,-5.055176,-1.989928,-3.220520,-2.810956,-1.655659,0.671510,0.575125,0.011610,-0.274250,-104.554863,11.481230,125.280670
00378,197900000,1970,1,1,0,0,27,0,-5.062839,-3.135864,-2.945967,-2.494770,-1.587557,0.745594,0.559280,0.031448,-0.283254,-105.703026,12.166169,126.080406
00379,207900000,1970,1,1,0,0,27,0,-4.432259,-4.920964,-2.446144,-2.731662,-1.631524,0.793241,0.548753,0.034012,-0.294480,-106.980438,12.902157,126.890877
00380,217900000,1970,1,1,0,0,27,0,-3.800764,-6.428266,-3.150441,-3.387845,-1.998522,0.814809,0.546560,0.033535,-0.305024,-108.583092,13.733797,127.887932
00381,227900000,1970,1,1,0,0,27,0,-4.560720,-7.414599,-5.356553,-3.844664,-2.317240,0.602188,0.547682,0.052817,-0.315207,-110.387962,14.538377,129.082428
00382,237900000,1970,1,1,0,0,27,0,-5.392477,-6.996902,-7.222825,-4.135173,-2.222498,0.346217,0.529254,0.081223,-0.324388,-112.353500,15.222650,130.258072
00383,247900000,1970,1,1,0,0,27,0,-6.166274,-5.730150,-7.934724,-4.376194,-1.823178,0.337093,0.540843,0.083503,-0.328593,-114.513420,15.850707,131.200058
00384,257900000,1970,1,1,0,0,27,0,-6.713954,-4.587418,-7.761612,-4.526489,-1.308607,0.510694,0.521744,0.098019,-0.332711,-116.851822,16.476372,131.792648
00385,267900000,1970,1,1,0,0,27,0,-6.780984,-3.601184,-7.101663,-4.517592,-0.851378,0.776100,0.525364,0.117505,-0.337504,-119.283997,17.137875,132.049072
00386,277900000,1970,1,1,0,0,27,0,-5.942617,-3.793194,-5.341573,-4.399345,-0.622608,1.046665,0.516939,0.135121,-0.330359,-121.720352,17.878624,132.076462
00387,287900000,1970,1,1,0,0,27,0,-5.455376,-4.683010,-4.483261,-3.966923,-0.693394,0.962324,0.531104,0.134635,-0.331771,-123.902367,18.602932,132.138474
00388,297900000,1970,1,1,0,0,27,0,-5.635492,-5.844560,-4.865941,-3.456689,-0.852774,0.586817,0.517610,0.149011,-0.335423,-125.734291,19.205425,132.381393
00389,307900000,1970,1,1,0,0,27,0,-5.895856,-6.614490,-5.715248,-3.247559,-0.917669,0.188346,0.517757,0.154677,-0.335386,-127.393524,19.653835,132.787048
00390,317900000,1970,1,1,0,0,27,0,-6.268731,-6.782464,-7.183515,-3.316125,-0.887485,-0.077023,0.501070,0.178168,-0.328904,-129.066025,19.983215,133.264191
00391,327900000,1970,1,1,0,0,27,0,-7.027853,-6.295947,-8.718374,-3.477443,-0.729812,-0.281832,0.504014,0.189567,-0.326019,-130.832092,20.177868,133.742126
00392,337900000,1970,1,1,0,0,27,0,-7.449437,-5.081886,-9.383562,-3.738966,-0.427417,-0.245934,0.507104,0.206630,-0.323097,-132.804749,20.287382,134.059570
00393,347900000,1970,1,1,0,0,27,0,-7.937662,-3.180816,-8.957016,-4.101712,-0.191897,0.131876,0.504210,0.221275,-0.315504,-135.081848,20.471251,134.110214
00394,357900000,1970,1,1,0,0,27,0,-7.648256,-2.277787,-8.295191,-4.422410,-0.127461,0.690249,0.498362,0.236125,-0.305567,-137.646988,20.853228,133.879501
00395,367900000,1970,1,1,0,0,27,0,-7.078510,-2.572082,-8.796639,-4.661342,-0.222363,1.219454,0.511534,0.239430,-0.288915,-140.437302,21.466778,133.424164
00396,377900000,1970,1,1,0,0,27,0,-7.458847,-2.968444,-9.845719,-5.089224,-0.471068,1.631388,0.500007,0.251588,-0.279463,-143.534897,22.316687,132.826752
00397,387900000,1970,1,1,0,0,27,0,-8.360294,-3.468042,-10.499650,-5.405765,-0.636364,1.901524,0.513551,0.263254,-0.265333,-146.878250,23.301176,132.101440
00398,397900000,1970,1,1,0,0,27,0,-8.911991,-4.104714,-10.775460,-5.498320,-0.558523,2.023304,0.510444,0.263598,-0.260411,-150.352295,24.243555,131.219162
00399,407900000,1970,1,1,0,0,27,0,-9.851864,-4.437843,-10.620919,-5.515029,-0.443945,1.959702,0.529283,0.281200,-0.238045,-153.877182,25.060936,130.275131
00400,417900000,1970,1,1,0,0,27,0,-9.878720,-4.124860,-11.259314,-5.372130,-0.125412,1.815663,0.517305,0.287966,-0.223473,-157.355759,25.625776,129.276260
00401,427900000,1970,1,1,0,0,27,0,-9.906741,-3.551177,-12.539770,-4.961721,0.400784,1.608701,0.533053,0.288505,-0.204029,-160.620407,25.813902,128.247604
00402,437900000,1970,1,1,0,0,27,0,-10.508443,-2.436069,-12.772298,-4.558448,1.029913,1.497977,0.532212,0.292159,-0.188543,-163.682373,25.589048,127.154724
00403,447900000,1970,1,1,0,0,27,0,-10.136333,-1.944483,-12.037436,-4.187615,1.643575,1.518550,0.541910,0.281643,-0.167061,-166.565964,24.978340,125.972023
00404,457900000,1970,1,1,0,0,27,0,-9.480157,-1.834359,-11.314805,-3.824763,2.055610,1.503432,0.546364,0.291233,-0.143339,-169.230087,24.085939,124.786057
00405,467900000,1970,1,1,0,0,27,0,-9.382955,-1.659622,-10.747657,-3.537475,2.329877,1.459502,0.564463,0.286311,-0.118542,-171.690292,22.988867,123.657883
00406,477900000,1970,1,1,0,0,27,0,-8.969100,-1.654353,-10.549279,-3.320852,2.671926,1.381706,0.559979,0.293688,-0.087804,-173.973389,21.652201,122.611610
00407,487900000,1970,1,1,0,0,27,0,-8.635925,-1.109931,-9.438476,-3.106860,3.005937,1.240997,0.586487,0.288556,-0.062308,-176.061234,20.084019,121.704994
00408,497900000,1970,1,1,0,0,27,0,-8.574446,-0.504201,-7.445383,-2.883015,3.204381,1.159194,0.579058,0.284535,-0.034455,-177.959564,18.373949,120.908325
00409,507900000,1970,1,1,0,0,27,0,-8.290557,-0.481534,-5.569088,-2.646861,3.333369,1.175590,0.588519,0.282928,-0.005184,-179.683441,16.570465,120.169746
00410,517900000,1970,1,1,0,0,27,0,-8.101778,-0.725355,-4.581990,-2.558082,3.372100,1.247130,0.575413,0.276215,0.022185,178.671448,14.728144,119.452644
00411,527900000,1970,1,1,0,0,27,0,-7.276878,-0.401858,-4.872717,-2.788089,3.426886,1.453213,0.589881,0.263411,0.057004,176.903687,12.833875,118.681725
00412,537900000,1970,1,1,0,0,27,0,-5.424392,-0.169565,-4.626711,-3.035452,3.595301,1.766415,0.585029,0.256624,0.087650,174.997696,10.810812,117.803535
00413,547900000,1970,1,1,0,0,27,0,-3.425847,-0.581755,-3.393118,-3.126343,3.669513,2.041870,0.594355,0.237747,0.111654,173.056656,8.702839,116.851189
00414,557900000,1970,1,1,0,0,27,0,-2.403280,-1.474118,-2.359899,-3.052908,3.618939,2.171312,0.583978,0.228130,0.139237,171.191818,6.583518,115.897522
00415,567900000,1970,1,1,0,0,27,0,-1.293972,-2.711586,-1.668912,-2.977941,3.553281,2.158706,0.598305,0.203859,0.171405,169.412125,4.472756,115.022575
00416,577900000,1970,1,1,0,0,27,0,-0.779201,-3.969907,-1.210141,-2.922260,3.479512,2.052363,0.573921,0.188789,0.195207,167.704636,2.388546,114.265305
00417,587900000,1970,1,1,0,0,27,0,-0.741219,-4.733497,-0.909537,-2.930284,3.369933,1.851676,0.589072,0.178270,0.219734,166.025803,0.368122,113.674606
00418,597900000,1970,1,1,0,0,27,0,-0.571789,-4.832499,-1.283378,-2.955266,3.323181,1.623828,0.564541,0.157535,0.243499,164.354401,-1.611339,113.263092
00419,607900000,1970,1,1,0,0,27,0,0.092881,-4.208745,-2.379054,-2.924382,3.454005,1.460857,0.571436,0.147089,0.264748,162.710709,-3.649330,113.022240
00420,617900000,1970,1,1,0,0,27,0,1.239292,-2.979785,-4.057624,-2.901435,3.682568,1.242415,0.546747,0.132293,0.293706,161.074188,-5.781388,113.000328
00421,627900000,1970,1,1,0,0,27,0,2.077492,-1.205514,-5.494728,-3.047692,3.841610,1.065935,0.552746,0.105261,0.322578,159.334808,-7.967864,113.171440
00422,637900000,1970,1,1,0,0,27,0,2.750198,0.621126,-6.054441,-3.214070,3.883193,0.920241,0.523501,0.107053,0.340869,157.470810,-10.142587,113.497169
00423,647900000,1970,1,1,0,0,27,0,2.983165,1.901349,-6.400932,-3.203657,3.933778,0.709684,0.524870,0.093778,0.359055,155.562836,-12.287737,114.030426
00424,657900000,1970,1,1,0,0,27,0,2.291207,2.744762,-6.523583,-2.958040,4.060688,0.421755,0.500785,0.084236,0.380316,153.716415,-14.412911,114.822411
00425,667900000,1970,1,1,0,0,27,0,1.079064,3.190850,-6.477912,-2.714722,4.259637,0.144220,0.490493,0.065848,0.402688,151.906982,-16.543705,115.895866
00426,677900000,1970,1,1,0,0,27,0,-0.108039,3.563060,-5.913225,-2.597821,4.448375,-0.033508,0.472537,0.064392,0.419316,150.056564,-18.686739,117.198700
00427,687900000,1970,1,1,0,0,27,0,-0.246639,3.986762,-5.082290,-2.649025,4.633292,-0.017057,0.444899,0.044000,0.448004,148.082291,-20.883186,118.646301
00428,697900000,1970,1,1,0,0,27,0,0.840964,3.802354,-4.133823,-2.768754,4.768778,0.028178,0.429899,0.042337,0.462286,145.938980,-23.108547,120.221687
00429,707900000,1970,1,1,0,0,27,0,1.904481,3.566601,-3.482074,-2.825303,4.713702,-0.094266,0.402943,0.024230,0.480681,143.641754,-25.210537,121.961456
00430,717900000,1970,1,1,0,0,27,0,2.456940,3.737151,-3.573044,-2.800677,4.623114,-0.371736,0.382722,0.019464,0.486746,141.202133,-27.109001,123.930794
00431,727900000,1970,1,1,0,0,27,0,2.428418,4.406693,-4.109746,-2.644420,4.628868,-0.775446,0.380899,0.015304,0.515065,138.644165,-28.784422,126.228539
00432,737900000,1970,1,1,0,0,27,0,1.722224,5.419075,-4.624136,-2.436531,4.683784,-1.379253,0.346292,0.002525,0.522486,135.937180,-30.155172,128.963364
00433,747900000,1970,1,1,0,0,27,0,0.351059,7.349361,-5.888430,-2.268783,4.769402,-1.904078,0.339541,0.006592,0.542661,133.074875,-31.229479,132.093781
00434,757900000,1970,1,1,0,0,27,0,-2.030448,8.803240,-6.627980,-2.148754,4.999396,-2.223295,0.296752,-0.003282,0.546823,130.051331,-32.113827,135.577560
00435,767900000,1970,1,1,0,0,27,0,-3.391721,11.026575,-6.652184,-1.965847,5.395262,-2.403066,0.273643,0.000794,0.557865,126.891724,-32.894436,139.433640
00436,777900000,1970,1,1,0,0,27,0,-4.541256,13.401411,-6.232698,-2.016729,5.811834,-2.141870,0.255467,-0.009161,0.574437,123.540436,-33.744640,143.504578
00437,787900000,1970,1,1,0,0,27,0,-4.877009,14.648957,-4.558447,-2.214842,6.194297,-1.509838,0.223657,-0.016207,0.584706,119.965324,-34.805058,147.670624
00438,797900000,1970,1,1,0,0,27,0,-4.047013,15.241514,-0.939282,-2.363590,6.096559,-1.088608,0.175336,-0.023108,0.588420,116.283783,-35.825459,151.768478
00439,807900000,1970,1,1,0,0,27,0,-3.288322,17.307793,2.986377,-2.717007,5.543437,-0.608593,0.168597,-0.030646,0.603365,112.561813,-36.741547,155.499435
00440,817900000,1970,1,1,0,0,27,0,-2.404264,20.588812,6.393898,-3.329592,4.765129,0.341851,0.131577,-0.052401,0.600186,108.823296,-37.805599,158.584152
00441,827900000,1970,1,1,0,0,27,0,-1.135394,22.106453,8.793897,-3.782017,3.868218,1.468728,0.119549,-0.071678,0.604280,105.220337,-39.169559,160.945786
00442,837900000,1970,1,1,0,0,27,0,-0.302606,22.006208,9.495100,-3.890112,2.947579,2.397442,0.085405,-0.090669,0.601352,101.928558,-40.804943,162.640991
00443,847900000,1970,1,1,0,0,27,0,-0.301157,20.776644,8.129690,-3.703149,2.326535,3.139292,0.085349,-0.110909,0.593490,98.961174,-42.712116,163.944626
00444,857900000,1970,1,1,0,0,27,0,-0.500402,19.168482,6.238820,-3.401327,2.257734,3.654113,0.067649,-0.138681,0.594484,96.072174,-44.846046,165.325912
00445,867900000,1970,1,1,0,0,27,0,-0.457517,17.636024,5.101893,-2.817838,2.584836,3.941513,0.064773,-0.141444,0.594232,93.141045,-47.098095,167.176102
00446,877900000,1970,1,1,0,0,27,0,0.414552,16.492222,4.886850,-1.897763,3.186114,3.984296,0.030776,-0.154771,0.591341,90.109062,-49.307674,169.803177
00447,887900000,1970,1,1,0,0,27,0,1.296098,15.834101,5.180840,-0.906121,3.883476,3.858877,0.022069,-0.160090,0.593183,86.868065,-51.330296,173.360886
00448,897900000,1970,1,1,0,0,27,0,1.109462,15.191144,6.171571,-0.136929,4.459022,3.740965,-0.022095,-0.150885,0.581773,83.308205,-53.114315,177.786911
00449,907900000,1970,1,1,0,0,27,0,0.679040,14.229633,7.097239,0.294230,4.795120,3.748164,-0.039526,-0.144117,0.593300,79.361488,-54.687866,-177.090057
00450,917900000,1970,1,1,0,0,27,0,0.584639,13.104683,7.746159,0.411664,5.024575,3.840242,-0.086865,-0.143204,0.584180,74.894241,-56.054058,-171.342346
00451,927900000,1970,1,1,0,0,27,0,0.793398,11.866660,8.709908,0.442395,5.068873,3.912386,-0.098149,-0.145757,0.583229,70.011078,-57.178070,-165.151855
00452,937900000,1970,1,1,0,0,27,0,0.918251,10.816812,9.703765,0.576623,4.920867,3.904928,-0.133679,-0.134066,0.569960,65.000961,-58.029881,-158.786942
00453,947900000,1970,1,1,0,0,27,0,0.684618,9.733748,10.656208,0.879200,4.576155,3.887973,-0.158767,-0.116168,0.573127,60.201542,-58.666988,-152.508011
00454,957900000,1970,1,1,0,0,27,0,0.976421,8.620591,10.363372,1.253408,4.175922,3.880384,-0.183466,-0.107315,0.565928,55.756886,-59.152779,-146.424759
00455,967900000,1970,1,1,0,0,27,0,1.569096,7.754849,9.633300,1.503592,3.847174,3.842039,-0.194304,-0.098674,0.562473,51.601902,-59.494705,-140.534744
00456,977900000,1970,1,1,0,0,27,0,1.877520,7.199997,8.902463,1.556183,3.617109,3.866120,-0.235372,-0.078208,0.551370,47.548534,-59.716866,-134.742203
00457,987900000,1970,1,1,0,0,27,0,1.903262,6.779027,8.907244,1.362606,3.395913,3.992345,-0.235237,-0.060938,0.556637,43.401257,-59.870216,-128.972260
00458,997900000,1970,1,1,0,0,27,0,1.744087,6.530014,8.475969,1.139510,3.124357,4.189847,-0.259411,-0.043860,0.544337,39.122849,-60.002510,-123.206039
00459,7900000,1970,1,1,0,0,28,0,1.868392,5.983423,8.225451,0.953591,2.947453,4.455985,-0.272679,-0.026788,0.538126,34.607563,-60.086479,-117.290306
00460,17900000,1970,1,1,0,0,28,0,1.851468,5.118009,8.356810,0.809517,2.798007,4.700714,-0.282773,-0.001424,0.529626,29.880049,-60.080662,-111.224289
00461,27900000,1970,1,1,0,0,28,0,1.659278,4.035089,8.092569,0.694649,2.624346,4.860283,-0.285587,0.010250,0.534622,25.057739,-59.954754,-105.115936
00462,37900000,1970,1,1,0,0,28,0,1.358082,3.034992,7.129355,0.648515,2.493218,4.952566,-0.312405,0.021458,0.516897,20.254000,-59.664448,-99.046951
00463,47900000,1970,1,1,0,0,28,0,1.118711,2.630764,5.988104,0.588566,2.514715,5.047166,-0.314469,0.044054,0.514234,15.464849,-59.126633,-93.006073
00464,57900000,1970,1,1,0,0,28,0,0.819107,2.620522,5.703596,0.518455,2.634042,5.192185,-0.339021,0.058572,0.507071,10.704734,-58.289188,-86.999237
00465,67900000,1970,1,1,0,0,28,0,0.715171,2.700960,6.020661,0.415868,2.755905,5.433024,-0.335474,0.075225,0.502260,5.971476,-57.149635,-81.028305
00466,77900000,1970,1,1,0,0,28,0,0.513074,2.841739,5.806708,0.307268,2.864670,5.728014,-0.362084,0.106536,0.489819,1.313382,-55.703316,-75.131981
00467,87900000,1970,1,1,0,0,28,0,0.281270,3.071787,5.227789,0.122772,2.908756,6.068918,-0.341569,0.122634,0.483829,-3.265702,-53.972488,-69.343201
00468,97900000,1970,1,1,0,0,28,0,-0.288463,2.450437,5.020288,-0.346488,2.787534,6.406980,-0.363093,0.139779,0.474340,-7.874664,-52.032799,-63.715919
00469,107900000,1970,1,1,0,0,28,0,-1.363343,1.621763,5.179099,-0.920935,2.509554,6.683895,-0.356444,0.161891,0.467221,-12.523059,-49.956543,-58.305008
00470,117900000,1970,1,1,0,0,28,0,-2.279128,-0.045265,6.279480,-1.320415,2.419482,6.899173,-0.369182,0.181385,0.453295,-17.037884,-47.633728,-53.193806
00471,127900000,1970,1,1,0,0,28,0,-2.449673,-2.131581,7.851490,-1.525806,2.456471,7.026993,-0.348977,0.203559,0.455075,-21.225807,-45.017376,-48.492317
00472,137900000,1970,1,1,0,0,28,0,-2.674410,-3.139774,7.947297,-1.594805,2.509167,7.207838,-0.362099,0.226296,0.448901,-25.043287,-42.110100,-44.148319
00473,147900000,1970,1,1,0,0,28,0,-3.288845,-2.819335,6.867474,-1.635506,2.459877,7.183760,-0.347488,0.237005,0.444985,-28.429014,-39.040264,-40.248039
00474,157900000,1970,1,1,0,0,28,0,-4.279153,-2.121544,6.482030,-1.917903,2.350737,7.123778,-0.341748,0.254135,0.450718,-31.576675,-35.875710,-36.733261
00475,167900000,1970,1,1,0,0,28,0,-4.620772,-1.319641,7.235807,-2.366945,2.116101,7.171844,-0.326540,0.275901,0.441720,-34.693092,-32.658237,-33.448765
00476,177900000,1970,1,1,0,0,28,0,-4.956081,-0.691369,8.099575,-2.597937,1.864040,7.313760,-0.317613,0.289719,0.439934,-37.711052,-29.365524,-30.302166
00477,187900000,1970,1,1,0,0,28,0,-6.030809,-0.449477,8.606975,-2.424589,1.729361,7.492810,-0.306048,0.315208,0.446188,-40.516403,-25.888624,-27.261889
00478,197900000,1970,1,1,0,0,28,0,-7.189237,-1.046440,8.319726,-2.132878,1.642747,7.727929,-0.294386,0.320321,0.442002,-42.934361,-22.239376,-24.340855
00479,207900000,1970,1,1,0,0,28,0,-7.927812,-2.232418,8.030898,-1.950588,1.633731,7.988033,-0.263271,0.336687,0.447256,-45.030228,-18.387926,-21.545378
00480,217900000,1970,1,1,0,0,28,0,-8.509836,-4.195001,8.658667,-1.905123,1.577131,8.064204,-0.257378,0.353681,0.450411,-46.876511,-14.438880,-18.885323
00481,227900000,1970,1,1,0,0,28,0,-9.151184,-6.178708,9.362465,-1.987186,1.419868,7.900616,-0.220352,0.369633,0.450976,-48.556057,-10.543176,-16.410456
00482,237900000,1970,1,1,0,0,28,0,-9.390353,-7.385034,9.958097,-2.140614,1.221168,7.463820,-0.212030,0.378196,0.456886,-50.126965,-6.843605,-14.137121
00483,247900000,1970,1,1,0,0,28,0,-9.760460,-6.963228,11.143639,-2.144492,0.985919,6.968736,-0.192034,0.380266,0.453381,-51.541649,-3.391953,-12.074808
00484,257900000,1970,1,1,0,0,28,0,-9.999814,-5.537301,11.290281,-1.980059,0.726352,6.746175,-0.158719,0.391307,0.466565,-52.737301,-0.085379,-10.052231
00485,267900000,1970,1,1,0,0,28,0,-10.736423,-4.903644,10.760571,-1.858973,0.551817,6.853729,-0.130773,0.393579,0.471494,-53.743259,3.250103,-7.962436
00486,277900000,1970,1,1,0,0,28,0,-11.515585,-5.407968,10.268312,-1.802208,0.390943,7.059514,-0.108352,0.393020,0.473359,-54.584415,6.661343,-5.778152
00487,287900000,1970,1,1,0,0,28,0,-11.825243,-6.415334,9.719876,-1.652150,0.270873,7.146586,-0.089050,0.404410,0.485377,-55.200153,10.102345,-3.540720
00488,297900000,1970,1,1,0,0,28,0,-11.737789,-7.555201,10.810781,-1.309304,0.221573,7.013395,-0.052989,0.395141,0.490931,-55.491573,13.483167,-1.330188
00489,307900000,1970,1,1,0,0,28,0,-11.012110,-9.355229,13.430968,-0.753921,0.097575,6.689621,-0.024591,0.402805,0.490740,-55.345093,16.675018,0.871141
00490,317900000,1970,1,1,0,0,28,0,-9.715807,-11.402879,15.605124,-0.078747,-0.215513,6.094033,-0.007477,0.407914,0.489599,-54.697735,19.470362,3.076006
00491,327900000,1970,1,1,0,0,28,0,-8.954721,-12.276779,15.693471,0.574127,-0.719075,5.204754,0.023126,0.404451,0.494723,-53.580265,21.651133,5.287228
00492,337900000,1970,1,1,0,0,28,0,-8.956919,-11.313235,14.466267,1.043420,-1.089125,4.281891,0.034568,0.401065,0.490482,-52.155548,23.235569,7.428192
00493,347900000,1970,1,1,0,0,28,0,-9.521045,-9.142637,13.527153,1.294041,-1.260208,3.588361,0.063197,0.405622,0.485117,-50.587566,24.395889,9.441653
00494,357900000,1970,1,1,0,0,28,0,-10.141760,-6.911409,12.644625,1.303041,-1.352773,3.174519,0.072739,0.413090,0.470405,-49.010578,25.290049,11.390341
00495,367900000,1970,1,1,0,0,28,0,-10.602305,-4.559260,12.908074,1.073761,-1.388359,3.015042,0.092205,0.412738,0.474615,-47.542610,26.055742,13.319747
00496,377900000,1970,1,1,0,0,28,0,-10.965356,-2.326571,13.840739,0.824674,-1.580115,3.100953,0.120608,0.414599,0.471810,-46.121555,26.739042,15.416750
00497,387900000,1970,1,1,0,0,28,0,-12.019950,-1.177968,14.154675,0.623015,-1.813865,3.300470,0.140300,0.416943,0.473461,-44.687218,27.363943,17.745655
00498,397900000,1970,1,1,0,0,28,0,-12.339366,-0.912282,14.419657,0.538607,-2.005719,3.545156,0.152052,0.407482,0.461449,-43.167931,27.954811,20.302713
00499,407900000,1970,1,1,0,0,28,0,-12.739152,-1.534023,14.111461,0.736198,-2.156816,3.737128,0.191666,0.409064,0.459576,-41.418461,28.492250,23.049459
00500,417900000,1970,1,1,0,0,28,0,-12.970296,-2.332063,13.623825,1.063755,-2.153246,3.797101,0.217121,0.405329,0.456501,-39.426151,28.975674,25.866505
00501,427900000,1970,1,1,0,0,28,0,-12.665880,-2.673308,13.726537,1.365135,-2.157162,3.750908,0.242722,0.407260,0.453462,-37.234844,29.351984,28.690039
00502,437900000,1970,1,1,0,0,28,0,-12.511209,-2.832422,13.531004,1.589170,-2.253006,3.635862,0.260305,0.400354,0.439357,-34.899738,29.548615,31.512703
00503,447900000,1970,1,1,0,0,28,0,-12.597601,-2.679957,13.008801,1.750042,-2.344008,3.505572,0.278181,0.404780,0.425326,-32.478550,29.559406,34.307762
00504,457900000,1970,1,1,0,0,28,0,-12.862160,-2.137116,12.589951,1.867669,-2.389742,3.369533,0.301437,0.406370,0.414321,-30.021976,29.405210,37.035263
00505,467900000,1970,1,1,0,0,28,0,-12.849349,-1.321330,12.250421,1.911661,-2.367131,3.367809,0.344469,0.401533,0.399755,-27.556992,29.161766,39.742203
00506,477900000,1970,1,1,0,0,28,0,-12.779613,-0.873856,12.119491,1.807064,-2.401729,3.450302,0.353114,0.392414,0.392666,-25.142988,28.823334,42.494923
00507,487900000,1970,1,1,0,0,28,0,-12.662281,-0.574744,11.981531,1.630847,-2.421219,3.637276,0.393648,0.387373,0.372712,-22.799973,28.420797,45.327869
00508,497900000,1970,1,1,0,0,28,0,-11.832838,-1.305611,12.142149,1.484390,-2.424623,3.764977,0.405846,0.389105,0.358196,-20.535173,27.945894,48.213772
00509,507900000,1970,1,1,0,0,28,0,-12.189104,-2.368428,12.460130,1.480464,-2.461943,3.561286,0.434651,0.370316,0.339794,-18.366283,27.315533,50.934464
00510,517900000,1970,1,1,0,0,28,0,-11.518687,-2.865439,12.173923,1.538885,-2.527641,3.172804,0.447228,0.374608,0.320141,-16.316004,26.496405,53.394691
00511,527900000,1970,1,1,0,0,28,0,-11.070816,-2.556894,11.946538,1.772350,-2.544803,2.789505,0.472620,0.356436,0.311817,-14.291271,25.534494,55.556454
00512,537900000,1970,1,1,0,0,28,0,-10.997797,-2.080487,11.385489,1.894890,-2.541998,2.606911,0.483150,0.365915,0.281656,-12.301980,24.484951,57.559166
00513,547900000,1970,1,1,0,0,28,0,-10.887761,-1.474324,10.448889,1.780912,-2.447864,2.522497,0.524755,0.342069,0.282428,-10.460199,23.421764,59.427692
00514,557900000,1970,1,1,0,0,28,0,-10.390626,-0.636498,9.814132,1.457598,-2.249085,2.679801,0.512345,0.338080,0.252887,-8.824018,22.438080,61.337982
00515,567900000,1970,1,1,0,0,28,0,-9.201818,-0.400524,9.566210,0.953485,-2.064245,2.970035,0.535307,0.328339,0.241808,-7.459888,21.540648,63.349834
00516,577900000,1970,1,1,0,0,28,0,-8.240770,-1.010836,9.601271,0.379804,-1.893227,3.027229,0.543574,0.316662,0.239856,-6.455329,20.708588,65.357040
00517,587900000,1970,1,1,0,0,28,0,-7.900847,-1.266282,10.437317,-0.084162,-1.829382,2.946415,0.572295,0.306645,0.226665,-5.770231,19.882334,67.283295
00518,597900000,1970,1,1,0,0,28,0,-7.711183,-1.276396,10.717774,-0.279923,-1.878306,2.904508,0.575425,0.283091,0.211284,-5.237983,19.008215,69.167938
00519,607900000,1970,1,1,0,0,28,0,-7.381377,-1.313106,10.661487,-0.290991,-1.886572,2.891883,0.606429,0.258977,0.200812,-4.747417,18.114422,71.026878
00520,617900000,1970,1,1,0,0,28,0,-7.789305,-1.356753,11.259663,-0.124029,-1.894970,2.850127,0.597965,0.238947,0.192249,-4.201898,17.199583,72.845604
00521,627900000,1970,1,1,0,0,28,0,-8.341835,-1.196234,11.221015,0.401101,-1.981739,2.830178,0.612600,0.226446,0.177874,-3.392704,16.216064,74.628670
00522,637900000,1970,1,1,0,0,28,0,-8.519322,-0.147486,9.558724,0.829234,-1.891694,3.063785,0.616023,0.214224,0.162566,-2.337166,15.266047,76.520851
00523,647900000,1970,1,1,0,0,28,0,-7.840068,0.199011,8.580746,0.686705,-1.549959,3.464497,0.641191,0.193355,0.156802,-1.337232,14.490245,78.615364
00524,657900000,1970,1,1,0,0,28,0,-6.831232,0.061398,8.761015,0.151430,-1.266286,3.738993,0.632964,0.164416,0.140451,-0.633251,13.852757,80.852318
00525,667900000,1970,1,1,0,0,28,0,-6.310353,-0.044403,9.985013,-0.446845,-1.143818,3.878967,0.657753,0.140989,0.139824,-0.277540,13.267936,83.157883
00526,677900000,1970,1,1,0,0,28,0,-5.988247,-0.247984,10.773692,-0.864935,-1.178933,3.942432,0.658014,0.108870,0.121576,-0.176964,12.655179,85.491943
00527,687900000,1970,1,1,0,0,28,0,-6.160726,-0.771990,11.485000,-0.979446,-1.266411,3.987683,0.665604,0.089105,0.127302,-0.161915,11.990556,87.846611
00528,697900000,1970,1,1,0,0,28,0,-5.782178,-1.192541,11.374186,-0.947133,-1.321463,3.975738,0.662684,0.054497,0.113958,-0.157825,11.294621,90.184853
00529,707900000,1970,1,1,0,0,28,0,-5.423868,-1.493521,10.969229,-0.640203,-1.341618,3.842230,0.676336,0.034182,0.112417,-0.022074,10.584731,92.441124
00530,717900000,1970,1,1,0,0,28,0,-5.174843,-0.998364,10.294876,-0.366605,-1.256208,3.720949,0.671059,0.010839,0.096336,0.229260,9.917017,94.615402
00531,727900000,1970,1,1,0,0,28,0,-5.317386,0.149641,9.291790,-0.174157,-1.043527,3.704914,0.678801,-0.009064,0.099484,0.565082,9.360922,96.773582
00532,737900000,1970,1,1,0,0,28,0,-5.619350,1.390064,8.973314,-0.094129,-0.638668,3.950092,0.670422,-0.037866,0.085710,0.953503,9.022576,99.069275
00533,747900000,1970,1,1,0,0,28,0,-5.507421,1.906458,8.813154,-0.286181,-0.302930,4.429045,0.678103,-0.072206,0.083611,1.267950,8.858526,101.644333
00534,757900000,1970,1,1,0,0,28,0,-3.908050,1.360530,9.145775,-0.773694,-0.208248,4.535882,0.663431,-0.097352,0.082279,1.309793,8.740140,104.281212
00535,767900000,1970,1,1,0,0,28,0,-3.924713,1.487443,9.836980,-1.190579,-0.447398,4.273632,0.673914,-0.131761,0.080412,1.083891,8.490611,106.761345
00536,777900000,1970,1,1,0,0,28,0,-4.422224,1.684821,9.101717,-1.404180,-0.485446,4.164951,0.668185,-0.160497,0.069449,0.718350,8.231488,109.179062
00537,787900000,1970,1,1,0,0,28,0,-4.112833,1.522651,9.197583,-1.461515,-0.395726,4.140503,0.667526,-0.185992,0.069283,0.311789,8.039339,111.583817
00538,797900000,1970,1,1,0,0,28,0,-3.918225,0.913895,9.572624,-1.392023,-0.469481,4.026480,0.650209,-0.217007,0.062525,-0.069713,7.820360,113.922165
00539,807900000,1970,1,1,0,0,28,0,-3.823276,0.710686,8.759707,-1.188293,-0.519549,3.832403,0.650000,-0.237110,0.057240,-0.356722,7.584527,116.150848
00540,817900000,1970,1,1,0,0,28,0,-3.724923,0.600785,8.356303,-1.070407,-0.484413,3.681161,0.635328,-0.262256,0.055908,-0.594650,7.377182,118.289467
00541,827900000,1970,1,1,0,0,28,0,-3.896574,0.451503,8.662401,-1.145164,-0.552500,3.554671,0.624214,-0.282354,0.044535,-0.891611,7.138829,120.357452
00542,837900000,1970,1,1,0,0,28,0,-3.501968,-0.001034,8.902786,-1.383469,-0.627442,3.453707,0.612954,-0.308117,0.033124,-1.340186,6.869146,122.367867
00543,847900000,1970,1,1,0,0,28,0,-2.779648,-0.825321,8.979206,-1.732481,-0.723391,3.283935,0.613045,-0.322691,0.025298,-2.009554,6.560092,124.284271
00544,857900000,1970,1,1,0,0,28,0,-2.762986,-1.296840,9.501069,-2.117762,-0.778612,2.985195,0.590416,-0.342236,0.018148,-2.929642,6.236739,126.030952
00545,867900000,1970,1,1,0,0,28,0,-2.575007,-1.125992,10.111691,-2.301716,-0.790515,2.707564,0.593608,-0.351351,0.008014,-3.982447,5.925479,127.625336
00546,877900000,1970,1,1,0,0,28,0,-2.398225,-0.678424,10.410339,-2.313616,-0.846800,2.496548,0.579923,-0.374486,-0.008767,-5.063166,5.600674,129.103394
00547,887900000,1970,1,1,0,0,28,0,-2.356705,-0.671690,10.490669,-2.188944,-0.958989,2.193952,0.578340,-0.375511,-0.029623,-6.096820,5.220879,130.422562
00548,897900000,1970,1,1,0,0,28,0,-2.444803,-0.376159,11.104728,-2.047122,-1.242208,1.630207,0.556010,-0.389527,-0.039315,-7.085627,4.665172,131.441330
00549,907900000,1970,1,1,0,0,28,0,-2.778839,0.164840,10.605502,-1.968472,-1.692827,1.331318,0.568513,-0.388068,-0.058986,-8.050464,3.848089,132.335205
00550,917900000,1970,1,1,0,0,28,0,-3.416930,1.358738,9.632236,-2.068548,-2.207723,1.510478,0.549448,-0.408366,-0.078793,-9.076756,2.770723,133.383133
00551,927900000,1970,1,1,0,0,28,0,-3.483332,1.151355,10.197325,-2.283217,-2.541003,2.048848,0.542638,-0.406693,-0.105253,-10.229970,1.578243,134.790268
00552,937900000,1970,1,1,0,0,28,0,-2.976356,0.564321,11.139337,-2.512683,-2.941105,2.157521,0.524403,-0.419040,-0.135316,-11.540499,0.204166,136.321609
00553,947900000,1970,1,1,0,0,28,0,-2.331031,-0.415245,12.369592,-2.512460,-3.040588,2.111408,0.508880,-0.416883,-0.157319,-12.884668,-1.194609,137.871170
00554,957900000,1970,1,1,0,0,28,0,-2.532809,-1.738729,13.604175,-2.164573,-3.098481,1.943660,0.498681,-0.437802,-0.184160,-14.062974,-2.613287,139.362808
00555,967900000,1970,1,1,0,0,28,0,-3.104803,-1.401051,13.019803,-1.577759,-3.269250,1.762155,0.488531,-0.432678,-0.200523,-14.938622,-4.124506,140.804749
00556,977900000,1970,1,1,0,0,28,0,-3.146310,-2.027363,12.516202,-1.118380,-3.311292,1.568130,0.461804,-0.436044,-0.226075,-15.580633,-5.666358,142.163208
00557,987900000,1970,1,1,0,0,28,0,-2.797957,-2.326861,11.933236,-0.831353,-3.431368,1.377999,0.460373,-0.437206,-0.249509,-16.086971,-7.287283,143.454239
00558,997900000,1970,1,1,0,0,28,0,-2.094112,-2.894210,11.140835,-0.775136,-3.716705,1.180218,0.433419,-0.443268,-0.272501,-16.592627,-9.082334,144.695038
00559,7900000,1970,1,1,0,0,29,0,-1.698764,-3.516384,9.155843,-1.097384,-3.988368,1.090890,0.425853,-0.446713,-0.288686,-17.327503,-11.025214,145.958603
00560,17900000,1970,1,1,0,0,29,0,-1.468004,-3.687033,7.333457,-1.002948,-3.943646,0.902819,0.398894,-0.446972,-0.309063,-18.035887,-12.958373,147.137527
00561,27900000,1970,1,1,0,0,29,0,-1.417512,-3.891672,7.892961,-0.912498,-3.792300,0.649769,0.397158,-0.447861,-0.327341,-18.701059,-14.839052,148.179169
00562,37900000,1970,1,1,0,0,29,0,-1.220531,-4.396356,8.374379,-0.935222,-3.718709,0.194376,0.364667,-0.445148,-0.348166,-19.350872,-16.750227,148.977310
00563,47900000,1970,1,1,0,0,29,0,-0.722993,-4.810964,8.638618,-0.683220,-3.773008,-0.470068,0.365880,-0.440440,-0.366175,-19.783365,-18.807108,149.438538
00564,57900000,1970,1,1,0,0,29,0,-0.960529,-4.540096,7.627873,-0.442152,-3.665161,-1.090599,0.349675,-0.440569,-0.377885,-19.975872,-20.920002,149.534698
00565,67900000,1970,1,1,0,0,29,0,-1.672819,-4.566522,6.432071,-0.070743,-3.211320,-1.674004,0.353459,-0.432824,-0.390486,-19.802670,-22.897202,149.199051
00566,77900000,1970,1,1,0,0,29,0,-2.274370,-4.639760,5.749739,0.277448,-2.533337,-2.267808,0.342841,-0.415685,-0.393886,-19.220570,-24.613796,148.349823
00567,87900000,1970,1,1,0,0,29,0,-2.295676,-4.574456,5.432327,0.481164,-1.658483,-2.686085,0.351096,-0.415758,-0.390609,-18.311022,-25.915863,147.037338
00568,97900000,1970,1,1,0,0,29,0,-1.016956,-4.604080,6.066453,0.755834,-0.842277,-2.776019,0.346168,-0.407530,-0.398753,-17.118568,-26.759388,145.473694
00569,107900000,1970,1,1,0,0,29,0,-0.097952,-5.046297,7.341575,0.877516,-0.559701,-2.865542,0.376917,-0.405329,-0.393592,-15.783810,-27.425802,143.773666
00570,117900000,1970,1,1,0,0,29,0,0.306946,-4.510889,7.335909,1.193178,-0.616390,-2.626165,0.365408,-0.410578,-0.391984,-14.321231,-28.046165,142.204788
00571,127900000,1970,1,1,0,0,29,0,1.311217,-3.041011,7.536215,1.542073,-0.690102,-1.878401,0.385014,-0.399462,-0.385122,-12.869961,-28.567987,141.097031
00572,137900000,1970,1,1,0,0,29,0,1.356491,-2.190397,8.341109,1.767268,-0.752372,-1.177711,0.365092,-0.398700,-0.381598,-11.496123,-29.014244,140.422516
00573,147900000,1970,1,1,0,0,29,0,3.240697,-1.300176,8.373753,2.075187,-1.070902,-0.660630,0.378811,-0.410380,-0.380506,-10.117506,-29.568480,140.105545
00574,157900000,1970,1,1,0,0,29,0,2.249611,-3.279658,5.991725,1.496999,-2.393452,1.162714,0.356250,-0.421289,-0.385023,-9.732099,-30.686155,141.112747
00575,167900000,1970,1,1,0,0,29,0,-0.347689,-3.855175,5.822489,1.068099,-3.006723,2.052286,0.341572,-0.440633,-0.383741,-9.961982,-32.065895,142.790543
00576,177900000,1970,1,1,0,0,29,0,-0.088569,-3.073318,5.143322,0.973562,-3.175747,2.295294,0.296968,-0.448425,-0.395261,-10.401859,-33.506405,144.688278
00577,187900000,1970,1,1,0,0,29,0,2.040766,-3.680930,5.689794,1.063377,-3.083682,2.590251,0.293427,-0.470881,-0.393064,-10.961259,-34.849216,146.821716
00578,197900000,1970,1,1,0,0,29,0,4.943306,-4.193868,6.666222,1.018927,-3.137105,3.076983,0.242980,-0.469624,-0.397262,-11.818466,-36.146446,149.352814
00579,207900000,1970,1,1,0,0,29,0,6.648489,-4.917934,6.152078,0.569095,-3.407294,3.549012,0.211944,-0.488960,-0.405112,-13.249615,-37.498524,152.333420
00580,217900000,1970,1,1,0,0,29,0,6.905014,-5.762181,5.686017,-0.241409,-3.652561,3.172859,0.181341,-0.485496,-0.410236,-15.134103,-38.975548,155.200729
00581,227900000,1970,1,1,0,0,29,0,4.879513,-7.355000,5.205225,-0.842631,-4.068263,1.238288,0.167486,-0.491086,-0.416595,-16.678474,-40.921944,156.894104
00582,237900000,1970,1,1,0,0,29,0,1.925058,-6.096960,4.366755,-0.797935,-3.860562,-0.322255,0.140443,-0.482574,-0.431761,-17.524429,-42.991039,157.506073
00583,247900000,1970,1,1,0,0,29,0,3.738546,-4.512895,3.138439,-0.718889,-3.101634,0.729326,0.140516,-0.479741,-0.431742,-18.815178,-44.448833,158.800858
00584,257900000,1970,1,1,0,0,29,0,5.194239,-5.271353,6.450921,-1.052091,-2.633756,0.856839,0.119162,-0.480140,-0.451653,-20.360098,-45.608002,160.151169
00585,267900000,1970,1,1,0,0,29,0,4.743710,-3.308211,5.065256,-1.049841,-2.468107,1.057367,0.102566,-0.471223,-0.452997,-22.055183,-46.609406,161.685486
00586,277900000,1970,1,1,0,0,29,0,4.556019,-2.732135,5.785197,-0.377373,-2.138158,1.476930,0.063099,-0.467140,-0.451088,-23.588646,-47.314224,163.504959
00587,287900000,1970,1,1,0,0,29,0,5.303489,-3.646641,7.824256,-0.246026,-2.039427,1.785319,0.052199,-0.472936,-0.459791,-25.246794,-47.860363,165.580292
00588,297900000,1970,1,1,0,0,29,0,6.653179,-4.200278,8.279258,-0.410374,-2.267785,1.764590,0.038107,-0.469618,-0.458361,-27.099871,-48.484978,167.772949
00589,307900000,1970,1,1,0,0,29,0,6.959029,-4.262168,7.409752,-0.135763,-2.445318,1.689002,0.020835,-0.468788,-0.452026,-28.864618,-49.172726,170.037949
00590,317900000,1970,1,1,0,0,29,0,6.509085,-5.954628,5.966002,0.083981,-2.447282,1.656402,0.001522,-0.468574,-0.458814,-30.548063,-49.826008,172.341415
00591,327900000,1970,1,1,0,0,29,0,6.396271,-7.617128,4.463198,0.168153,-2.341205,1.235126,-0.010073,-0.465051,-0.451995,-31.963753,-50.512150,174.335541
00592,337900000,1970,1,1,0,0,29,0,6.840246,-7.816795,3.143693,0.139168,-2.077506,0.634972,-0.035510,-0.478723,-0.456764,-33.004303,-51.228203,175.801758
00593,347900000,1970,1,1,0,0,29,0,7.440474,-7.672956,2.786850,-0.010790,-1.744427,0.136391,-0.030069,-0.467122,-0.448490,-33.751316,-51.928772,176.765823
00594,357900000,1970,1,1,0,0,29,0,8.584807,-6.812263,3.895582,-0.074322,-1.337227,-0.042315,-0.047183,-0.472231,-0.447348,-34.295422,-52.488228,177.412277
00595,367900000,1970,1,1,0,0,29,0,9.055121,-6.884318,4.919887,-0.295026,-0.780644,0.157649,-0.035369,-0.467256,-0.454112,-34.875175,-52.718220,177.939224
00596,377900000,1970,1,1,0,0,29,0,7.217015,-5.620335,4.566314,-0.591694,-0.386999,0.192624,-0.057643,-0.461032,-0.455941,-35.487667,-52.750290,178.288391
00597,387900000,1970,1,1,0,0,29,0,7.080372,-6.326787,2.809759,-0.404032,-0.323791,-0.166442,-0.054852,-0.449497,-0.450478,-35.750328,-52.872162,178.333267
00598,397900000,1970,1,1,0,0,29,0,7.532790,-5.177804,2.615619,0.150096,-0.243207,-0.536965,-0.060745,-0.466491,-0.453633,-35.439518,-53.081825,178.052399
00599,407900000,1970,1,1,0,0,29,0,7.125102,-3.014257,3.983618,1.206286,-0.140821,-0.257897,-0.056353,-0.471338,-0.435159,-34.654831,-53.153088,177.934158
00600,417900000,1970,1,1,0,0,29,0,4.739437,-4.961779,4.656799,1.243872,0.129880,0.362908,-0.056274,-0.474307,-0.437755,-34.120438,-52.897396,178.155411
00601,427900000,1970,1,1,0,0,29,0,5.228058,-6.246283,2.606781,1.209445,0.681397,0.679569,-0.048402,-0.471137,-0.426725,-33.574787,-52.278553,178.336411
00602,437900000,1970,1,1,0,0,29,0,5.870655,-7.121985,3.536357,1.223388,1.143728,0.764586,-0.054673,-0.490690,-0.424743,-32.899315,-51.413418,178.360748
00603,447900000,1970,1,1,0,0,29,0,6.004665,-7.321335,3.636902,0.951089,1.013118,0.825219,-0.049288,-0.499328,-0.424332,-32.482483,-50.592945,178.514481
00604,457900000,1970,1,1,0,0,29,0,5.387521,-6.656903,3.334723,0.856220,0.615389,0.996210,-0.046796,-0.493321,-0.416328,-32.374615,-49.912914,178.995819
00605,467900000,1970,1,1,0,0,29,0,4.666772,-6.755956,3.615442,0.754063,0.386680,0.843274,-0.052705,-0.492908,-0.411639,-32.319614,-49.391354,179.470444
00606,477900000,1970,1,1,0,0,29,0,4.698918,-6.475081,3.576280,0.732664,0.326396,0.797147,-0.064294,-0.495188,-0.407435,-32.271885,-48.912945,179.939255
00607,487900000,1970,1,1,0,0,29,0,4.824061,-6.657936,3.478148,0.713265,0.389731,0.879941,-0.047772,-0.506938,-0.406109,-32.257442,-48.378586,-179.561172
00608,497900000,1970,1,1,0,0,29,0,4.634727,-6.945920,3.616008,0.740706,0.458965,0.855042,-0.062394,-0.506042,-0.396964,-32.188389,-47.818439,-179.114868
00609,507900000,1970,1,1,0,0,29,0,4.578537,-7.337279,3.466733,0.790117,0.499449,0.766055,-0.057015,-0.508877,-0.393938,-32.029995,-47.266132,-178.748383
00610,517900000,1970,1,1,0,0,29,0,4.283214,-7.349040,3.287172,0.863554,0.627727,0.671290,-0.062620,-0.508738,-0.394404,-31.741077,-46.680725,-178.505707
00611,527900000,1970,1,1,0,0,29,0,4.874460,-9.156281,3.652401,0.748294,0.766322,0.829490,-0.059969,-0.508671,-0.391593,-31.559467,-45.980522,-178.207275
00612,537900000,1970,1,1,0,0,29,0,4.037095,-7.409158,3.595484,0.807656,0.697662,0.736502,-0.066026,-0.513923,-0.386941,-31.323641,-45.341640,-177.940323
00613,547900000,1970,1,1,0,0,29,0,2.641657,-7.610352,3.508943,1.582758,0.534361,0.133792,-0.058594,-0.527749,-0.376022,-30.401730,-44.961605,-178.015274
00614,557900000,1970,1,1,0,0,29,0,2.537523,-7.215973,4.902977,1.701374,0.050939,-1.160319,-0.056469,-0.535906,-0.368110,-28.916702,-45.186462,-178.795593
00615,567900000,1970,1,1,0,0,29,0,4.733094,-6.307265,5.446978,1.546078,-0.031396,-2.049389,-0.037235,-0.533152,-0.358726,-27.077547,-45.673740,179.802963
00616,577900000,1970,1,1,0,0,29,0,4.770196,-6.016757,4.201188,0.873583,0.070160,-2.139351,-0.034652,-0.541720,-0.358548,-25.522446,-46.102146,178.265076
00617,587900000,1970,1,1,0,0,29,0,5.636970,-4.987584,2.784353,0.656258,0.269985,-1.966869,-0.021316,-0.550157,-0.349704,-24.115231,-46.358757,176.767303
00618,597900000,1970,1,1,0,0,29,0,6.193261,-3.798075,2.789736,0.719990,0.497578,-1.827245,-0.010252,-0.556102,-0.348808,-22.685291,-46.441658,175.289078
00619,607900000,1970,1,1,0,0,29,0,5.844554,-2.306707,3.830095,0.998314,0.519882,-1.645403,-0.004885,-0.547332,-0.340553,-21.190577,-46.451912,173.939301
00620,617900000,1970,1,1,0,0,29,0,5.864030,-2.876039,5.042109,0.860283,0.387798,-1.315470,0.016786,-0.558811,-0.331027,-19.987507,-46.447884,172.882980
00621,627900000,1970,1,1,0,0,29,0,5.705007,-1.845575,5.251919,1.138347,-0.109375,-0.674470,0.018990,-0.569939,-0.325712,-19.087431,-46.577774,172.464142
00622,637900000,1970,1,1,0,0,29,0,4.814182,-3.446484,4.842952,0.824411,1.131002,1.614751,0.002163,-0.557915,-0.321882,-19.409986,-45.603767,173.492981
00623,647900000,1970,1,1,0,0,29,0,4.975463,-4.110233,6.778193,0.585493,1.128767,1.847594,0.006804,-0.583276,-0.316426,-19.961323,-44.580578,174.669067
00624,657900000,1970,1,1,0,0,29,0,5.089146,-2.934828,7.868432,0.824950,1.120257,1.846340,0.001571,-0.574775,-0.319415,-20.337219,-43.554150,175.811874
00625,667900000,1970,1,1,0,0,29,0,4.212729,-2.168740,7.102399,0.734686,1.032447,2.255164,-0.010847,-0.585006,-0.304954,-20.944807,-42.483444,177.239212
00626,677900000,1970,1,1,0,0,29,0,4.766842,-3.502820,5.438875,0.410530,1.073337,2.794197,-0.027442,-0.576089,-0.306298,-21.930836,-41.262352,178.996689
00627,687900000,1970,1,1,0,0,29,0,4.513188,-5.044265,3.998911,0.098600,1.551567,2.969010,-0.032895,-0.576086,-0.309342,-23.008394,-39.726578,-179.333694
00628,697900000,1970,1,1,0,0,29,0,3.393996,-6.426281,3.846581,0.807470,2.350131,2.437511,-0.047512,-0.580992,-0.302811,-23.233114,-37.876286,-178.319824
00629,707900000,1970,1,1,0,0,29,0,7.411101,-6.449146,3.888200,0.107614,3.354693,1.667564,-0.033804,-0.581067,-0.296490,-23.339804,-35.670090,-178.125351
00630,717900000,1970,1,1,0,0,29,0,10.378513,-2.831903,11.657655,0.787697,4.509642,1.015681,-0.034114,-0.574991,-0.288719,-22.646608,-33.006325,-178.658676
00631,727900000,1970,1,1,0,0,29,0,12.916811,0.422919,13.348091,1.456251,2.750039,0.593419,-0.020315,-0.589641,-0.290223,-21.711420,-31.366726,-178.950455
00632,737900000,1970,1,1,0,0,29,0,11.716161,3.237419,10.579556,0.618390,1.369267,1.363222,-0.042888,-0.588946,-0.289511,-21.682888,-30.303900,-178.415848
00633,747900000,1970,1,1,0,0,29,0,7.814221,2.991766,10.037560,0.391275,0.839935,2.365418,-0.031763,-0.580453,-0.283367,-22.129663,-29.314001,-177.146057
00634,757900000,1970,1,1,0,0,29,0,6.785607,1.057493,8.599137,1.120876,0.652680,3.165313,-0.057810,-0.593578,-0.277825,-22.373901,-28.246359,-175.379364
00635,767900000,1970,1,1,0,0,29,0,7.497982,0.414019,8.134823,0.822883,0.990707,3.826368,-0.063646,-0.590332,-0.273117,-22.877792,-26.847025,-173.328201
00636,777900000,1970,1,1,0,0,29,0,6.522426,-0.952053,8.807847,0.711695,1.187800,3.959273,-0.103193,-0.583279,-0.268611,-23.386806,-25.301722,-171.296509
00637,787900000,1970,1,1,0,0,29,0,5.591528,-2.593870,9.839295,1.250049,1.151653,3.600305,-0.101366,-0.596965,-0.258159,-23.437614,-23.851299,-169.493118
00638,797900000,1970,1,1,0,0,29,0,5.634937,-4.292297,11.267204,1.871418,0.704932,2.939323,-0.124018,-0.593300,-0.254850,-22.981869,-22.792652,-167.978775
00639,807900000,1970,1,1,0,0,29,0,5.586460,-5.650921,13.145163,2.248446,-0.348036,1.970994,-0.133950,-0.591722,-0.229771,-22.176897,-22.520702,-166.761032
00640,817900000,1970,1,1,0,0,29,0,4.118183,-7.231308,14.303509,2.515098,-1.481529,1.138936,-0.157426,-0.601811,-0.218821,-21.137774,-23.046490,-165.758881
00641,827900000,1970,1,1,0,0,29,0,1.644967,-9.125568,15.810758,2.182421,-1.869256,0.841810,-0.161368,-0.603616,-0.201027,-20.264055,-23.853348,-164.848175
00642,837900000,1970,1,1,0,0,29,0,1.672991,-10.861310,15.801033,0.683241,-1.998987,0.667226,-0.173645,-0.602379,-0.183915,-20.233374,-24.765421,-164.014862
00643,847900000,1970,1,1,0,0,29,0,4.356661,-13.239209,13.866879,0.283934,-2.208477,0.693313,-0.165012,-0.599892,-0.185775,-20.478201,-25.777519,-163.106995
00644,857900000,1970,1,1,0,0,29,0,5.649843,-13.400573,11.415809,0.919159,-2.042650,0.654166,-0.188262,-0.607285,-0.177384,-20.357122,-26.703939,-162.254791
00645,867900000,1970,1,1,0,0,29,0,4.069015,-9.693443,9.892263,0.567806,-1.737059,0.229521,-0.194178,-0.601069,-0.170080,-20.311453,-27.550825,-161.709396
00646,877900000,1970,1,1,0,0,29,0,4.119591,-7.121937,7.644603,0.238865,-1.385837,0.053134,-0.199935,-0.600793,-0.167969,-20.380169,-28.242533,-161.346573
00647,887900000,1970,1,1,0,0,29,0,5.477964,-5.653540,8.381742,-0.033061,-0.734835,0.376359,-0.197590,-0.600452,-0.160002,-20.635153,-28.519077,-160.929626
00648,897900000,1970,1,1,0,0,29,0,7.338072,-5.519557,11.668994,-0.279769,-0.347342,0.942779,-0.216683,-0.591739,-0.166735,-21.155832,-28.471018,-160.255524
00649,907900000,1970,1,1,0,0,29,0,8.971291,-6.449995,14.906332,-0.395054,-0.525196,1.489555,-0.214174,-0.603140,-0.166575,-21.918375,-28.397341,-159.204742
00650,917900000,1970,1,1,0,0,29,0,9.381252,-7.307793,15.355227,-0.335277,-1.183370,1.735130,-0.238951,-0.591317,-0.171178,-22.794336,-28.606380,-157.851227
00651,927900000,1970,1,1,0,0,29,0,8.872860,-8.342060,14.433426,-0.289986,-1.938439,1.598142,-0.242223,-0.579232,-0.158448,-23.710094,-29.225985,-156.367996
00652,937900000,1970,1,1,0,0,29,0,8.325963,-9.000940,12.982531,-0.395103,-2.490772,1.194718,-0.256236,-0.578883,-0.159614,-24.668972,-30.207619,-154.957672
00653,947900000,1970,1,1,0,0,29,0,6.841246,-7.579664,10.063355,-0.621568,-2.107000,1.314542,-0.273057,-0.572662,-0.158399,-25.774481,-30.938547,-153.549911
00654,957900000,1970,1,1,0,0,29,0,6.648160,-6.814890,9.959637,-1.112926,-1.197637,1.762865,-0.278052,-0.573070,-0.169177,-27.182203,-31.061888,-152.116135
00655,967900000,1970,1,1,0,0,29,0,7.425878,-6.994420,11.024089,-1.558934,-1.034409,1.630375,-0.283364,-0.561599,-0.169569,-28.782413,-31.106098,-150.814575
00656,977900000,1970,1,1,0,0,29,0,7.005672,-5.980165,10.772325,-1.916634,-0.956788,1.605893,-0.298984,-0.539065,-0.181132,-30.566545,-31.086245,-149.546158
00657,987900000,1970,1,1,0,0,29,0,6.472870,-6.469333,10.634838,-2.170557,-0.503492,1.822842,-0.317541,-0.533732,-0.198195,-32.470715,-30.745773,-148.313843
00658,997900000,1970,1,1,0,0,29,0,6.404194,-7.523188,11.651143,-2.108378,0.024408,1.833240,-0.316712,-0.525781,-0.208451,-34.223774,-30.116220,-147.289825
00659,7900000,1970,1,1,0,0,30,0,6.064009,-8.237564,12.357359,-1.953145,0.064346,1.700938,-0.324375,-0.508849,-0.214196,-35.819248,-29.485777,-146.385651
00660,17900000,1970,1,1,0,0,30,0,5.217136,-9.039915,12.196998,-1.933842,-0.357728,1.543512,-0.346271,-0.500066,-0.221162,-37.422356,-29.081068,-145.418488
00661,27900000,1970,1,1,0,0,30,0,3.876073,-10.054443,11.705439,-1.918565,-0.972775,1.161323,-0.339695,-0.480786,-0.228300,-39.029926,-29.064098,-144.408539
00662,37900000,1970,1,1,0,0,30,0,3.073581,-10.123342,10.651107,-1.776932,-1.584285,0.618367,-0.356584,-0.483200,-0.229717,-40.550991,-29.488693,-143.426285
00663,47900000,1970,1,1,0,0,30,0,2.336864,-9.328667,9.062285,-1.734467,-2.071683,0.226160,-0.356297,-0.466067,-0.227029,-42.073971,-30.245779,-142.396179
00664,57900000,1970,1,1,0,0,30,0,1.412970,-8.419366,7.342720,-1.719353,-2.313770,0.302391,-0.375006,-0.460597,-0.241513,-43.691120,-31.047213,-141.189896
00665,67900000,1970,1,1,0,0,30,0,0.912613,-8.556540,5.337833,-1.596551,-2.199353,0.440265,-0.372667,-0.454454,-0.230932,-45.275425,-31.714460,-139.937164
00666,77900000,1970,1,1,0,0,30,0,0.770195,-8.859463,3.630340,-1.641380,-1.806690,0.553774,-0.388506,-0.440418,-0.242550,-46.838875,-32.146667,-138.789459
00667,87900000,1970,1,1,0,0,30,0,1.107562,-9.334578,2.863140,-2.273733,-1.311485,0.615680,-0.379878,-0.432129,-0.241795,-48.664711,-32.330791,-137.841980
00668,97900000,1970,1,1,0,0,30,0,1.114209,-10.184912,4.105764,-3.000930,-0.866006,0.682182,-0.401018,-0.418228,-0.259036,-50.808147,-32.291264,-137.087921
00669,107900000,1970,1,1,0,0,30,0,0.648285,-11.151493,6.522063,-3.628712,-0.787978,0.660044,-0.408834,-0.401159,-0.262203,-53.284466,-32.206482,-136.377167
00670,117900000,1970,1,1,0,0,30,0,-0.311553,-11.608519,9.200032,-3.310699,-1.135069,0.363481,-0.418763,-0.387537,-0.278510,-55.616936,-32.347301,-135.588699
00671,127900000,1970,1,1,0,0,30,0,-1.110149,-12.211050,10.178464,-2.823888,-1.828269,0.126758,-0.407638,-0.379044,-0.272366,-57.841293,-32.788013,-134.492416
00672,137900000,1970,1,1,0,0,30,0,-0.727023,-12.869872,8.649831,-2.689110,-2.582108,-0.214583,-0.429613,-0.367291,-0.276736,-60.186588,-33.575668,-133.046112
00673,147900000,1970,1,1,0,0,30,0,0.097371,-13.152713,5.596743,-2.650091,-2.900998,-0.607212,-0.427426,-0.361011,-0.263577,-62.591576,-34.592102,-131.473907
00674,157900000,1970,1,1,0,0,30,0,0.989706,-12.300373,3.200409,-2.746232,-2.706961,-0.904046,-0.449474,-0.352091,-0.267965,-64.992569,-35.652256,-130.040756
00675,167900000,1970,1,1,0,0,30,0,1.809248,-9.863217,1.843665,-2.973402,-2.281823,-0.913180,-0.431999,-0.327015,-0.266399,-67.423492,-36.565819,-128.807663
00676,177900000,1970,1,1,0,0,30,0,1.973464,-7.348766,1.168096,-3.264955,-1.738865,-0.714715,-0.456906,-0.338265,-0.278883,-69.887024,-37.215607,-127.833847
00677,187900000,1970,1,1,0,0,30,0,3.340245,-6.893646,1.149239,-3.328422,-0.976490,-0.496670,-0.447985,-0.318645,-0.278055,-72.135063,-37.572975,-127.273430
00678,197900000,1970,1,1,0,0,30,0,4.368714,-6.447431,2.814759,-3.689983,-0.341703,-0.221838,-0.449659,-0.305096,-0.291085,-74.372780,-37.658527,-127.074875
00679,207900000,1970,1,1,0,0,30,0,4.341970,-7.233225,4.566692,-4.022581,-0.300344,0.241667,-0.459978,-0.282428,-0.297026,-76.837692,-37.476524,-126.816681
00680,217900000,1970,1,1,0,0,30,0,4.494874,-8.604906,5.502887,-4.088038,-0.498670,0.378502,-0.467263,-0.262937,-0.307908,-79.428848,-37.234066,-126.399330
00681,227900000,1970,1,1,0,0,30,0,5.061452,-9.964751,5.860890,-3.988940,-0.765171,0.138407,-0.452957,-0.251954,-0.306668,-82.048752,-37.138206,-125.837975
00682,237900000,1970,1,1,0,0,30,0,5.200044,-9.633645,5.389650,-3.782565,-0.918611,-0.397461,-0.477058,-0.232044,-0.318949,-84.583916,-37.338245,-125.216423
00683,247900000,1970,1,1,0,0,30,0,5.588300,-8.228965,4.406283,-3.884567,-1.131143,-0.763713,-0.457604,-0.220791,-0.309509,-87.267349,-37.734543,-124.443642
00684,257900000,1970,1,1,0,0,30,0,5.645731,-6.983711,3.511667,-3.854765,-1.368419,-0.899156,-0.473895,-0.212148,-0.316009,-90.057556,-38.183712,-123.472366
00685,267900000,1970,1,1,0,0,30,0,5.682032,-5.686786,2.026280,-3.704105,-1.683432,-0.902441,-0.476630,-0.203443,-0.313609,-92.928680,-38.594189,-122.234268
00686,277900000,1970,1,1,0,0,30,0,6.306245,-4.172873,0.639629,-3.516542,-1.924741,-0.738861,-0.490428,-0.188793,-0.312104,-95.821175,-38.854343,-120.796135
00687,287900000,1970,1,1,0,0,30,0,6.800096,-3.440950,-0.128768,-3.241127,-2.086944,-0.416953,-0.490440,-0.177188,-0.306875,-98.625381,-38.867718,-119.249191
00688,297900000,1970,1,1,0,0,30,0,7.174429,-4.105945,-0.538291,-3.087345,-2.067679,-0.106700,-0.504690,-0.167930,-0.300252,-101.304886,-38.654587,-117.758087
00689,307900000,1970,1,1,0,0,30,0,7.291255,-5.415192,-0.600019,-3.114496,-1.997539,0.023581,-0.499700,-0.161720,-0.286859,-103.938721,-38.327965,-116.350868
00690,317900000,1970,1,1,0,0,30,0,7.303744,-6.270539,-0.323921,-3.176037,-1.974888,-0.040569,-0.519482,-0.149490,-0.280684,-106.583038,-37.993450,-114.971031
00691,327900000,1970,1,1,0,0,30,0,7.354446,-6.348148,-0.465301,-3.315195,-2.036019,-0.115619,-0.516618,-0.135122,-0.275203,-109.319595,-37.641685,-113.557259
00692,337900000,1970,1,1,0,0,30,0,7.520773,-6.258790,-1.054210,-3.378182,-2.105566,-0.279985,-0.536852,-0.128284,-0.263909,-112.121552,-37.313408,-112.086929
00693,347900000,1970,1,1,0,0,30,0,7.718976,-5.545779,-1.626175,-3.314589,-2.092249,-0.458653,-0.520646,-0.128155,-0.252198,-114.889549,-37.028923,-110.593193
00694,357900000,1970,1,1,0,0,30,0,8.065214,-4.733971,-2.513376,-3.319205,-1.947755,-0.606921,-0.543005,-0.113159,-0.248816,-117.613602,-36.803883,-109.169807
00695,367900000,1970,1,1,0,0,30,0,7.902388,-3.903976,-4.150376,-3.346824,-1.295400,-0.774303,-0.526353,-0.101836,-0.239609,-120.132439,-36.794865,-108.113281
00696,377900000,1970,1,1,0,0,30,0,6.978254,-3.341996,-2.869667,-3.488722,-0.579989,-0.763767,-0.543016,-0.101554,-0.243586,-122.471443,-36.960625,-107.497551
00697,387900000,1970,1,1,0,0,30,0,8.108189,-2.833158,-1.258142,-3.181926,-1.060703,-1.120525,-0.532641,-0.103982,-0.229782,-124.902321,-37.125851,-106.437691
00698,397900000,1970,1,1,0,0,30,0,6.799670,-2.841625,-2.269185,-2.540800,-1.397461,-1.290519,-0.549761,-0.103290,-0.226026,-127.135979,-37.225925,-105.098000
00699,407900000,1970,1,1,0,0,30,0,5.006685,-2.450268,0.247169,-2.143064,-2.425596,-1.343605,-0.539691,-0.105444,-0.207066,-129.506271,-36.944759,-103.153358
00700,417900000,1970,1,1,0,0,30,0,5.913986,-1.984468,-2.842492,-1.633140,-3.917609,-0.888838,-0.563252,-0.106760,-0.190905,-131.897690,-35.847507,-100.647476
00701,427900000,1970,1,1,0,0,30,0,3.864656,-2.572484,-5.352134,-1.571541,-4.000565,-0.916569,-0.553565,-0.105671,-0.164194,-134.193024,-34.651093,-98.177292
00702,437900000,1970,1,1,0,0,30,0,2.533734,-2.226164,-5.519875,-1.646156,-3.633214,-0.896623,-0.566361,-0.118461,-0.144596,-136.334763,-33.520229,-95.986031
00703,447900000,1970,1,1,0,0,30,0,2.393617,-3.032242,-5.056059,-1.737173,-3.662163,-0.777109,-0.570236,-0.111631,-0.124169,-138.423615,-32.265102,-93.917381
00704,457900000,1970,1,1,0,0,30,0,1.177219,-4.173775,-5.567754,-1.723405,-3.770571,-0.995235,-0.579857,-0.116130,-0.106861,-140.506897,-30.981827,-91.775467
00705,467900000,1970,1,1,0,0,30,0,0.227885,-3.255297,-6.516855,-1.853195,-3.622274,-1.249446,-0.559480,-0.129347,-0.076731,-142.619370,-29.789112,-89.643517
00706,477900000,1970,1,1,0,0,30,0,-0.041862,-1.958894,-7.013044,-2.214792,-3.326366,-1.274324,-0.576600,-0.128654,-0.072974,-144.815811,-28.672165,-87.685501
00707,487900000,1970,1,1,0,0,30,0,-0.521462,-1.170392,-6.986194,-2.668104,-3.093988,-1.086415,-0.569789,-0.130328,-0.046514,-147.119247,-27.537683,-85.989105
00708,497900000,1970,1,1,0,0,30,0,-0.259062,-1.731247,-9.593064,-2.544925,-2.722875,-0.609285,-0.578039,-0.136058,-0.052407,-149.119110,-26.382584,-84.739960
00709,507900000,1970,1,1,0,0,30,0,-0.122736,-3.996001,-8.761590,-2.412914,-2.145295,-0.242579,-0.576077,-0.132474,-0.036688,-150.833054,-25.371220,-83.931694
00710,517900000,1970,1,1,0,0,30,0,-0.966129,-4.906872,-7.537855,-2.364657,-1.868176,-0.306113,-0.571307,-0.134762,-0.023350,-152.471527,-24.493990,-83.207703
00711,527900000,1970,1,1,0,0,30,0,-1.137226,-4.044866,-6.063924,-2.528139,-1.547864,-0.397390,-0.562979,-0.132002,-0.020054,-154.165039,-23.783279,-82.553726
00712,537900000,1970,1,1,0,0,30,0,-0.688564,-2.723621,-4.192208,-2.167988,-1.727494,-0.425272,-0.576980,-0.143258,-0.026450,-155.658997,-22.967905,-81.863213
00713,547900000,1970,1,1,0,0,30,0,-0.182274,-2.003265,-3.575287,-2.000145,-1.904891,-0.438688,-0.558355,-0.139956,-0.006754,-157.056671,-22.045910,-81.146049
00714,557900000,1970,1,1,0,0,30,0,0.094071,-2.194959,-3.525332,-1.976186,-2.034913,-0.408307,-0.578425,-0.144859,-0.003268,-158.423721,-21.032387,-80.443329
00715,567900000,1970,1,1,0,0,30,0,0.581546,-2.408026,-4.019093,-2.066530,-2.051720,-0.441593,-0.568129,-0.144317,0.013133,-159.827927,-20.001019,-79.749336
00716,577900000,1970,1,1,0,0,30,0,1.180228,-1.472901,-3.587518,-1.909685,-2.108967,-0.379359,-0.568202,-0.147150,0.013114,-161.111954,-18.912018,-79.108017
00717,587900000,1970,1,1,0,0,30,0,0.469240,-0.144932,-3.781759,-2.030609,-2.219093,-0.196317,-0.566162,-0.146536,0.026237,-162.417557,-17.717497,-78.581345
00718,597900000,1970,1,1,0,0,30,0,1.616399,0.581463,-4.404395,-2.303799,-2.126378,0.034018,-0.565716,-0.135341,0.023733,-163.817032,-16.524263,-78.234283
00719,607900000,1970,1,1,0,0,30,0,2.781134,0.394999,-4.509034,-2.492332,-2.052355,0.442890,-0.561251,-0.137356,0.042226,-165.242676,-15.302262,-78.168739
00720,617900000,1970,1,1,0,0,30,0,2.172157,0.088405,-4.985032,-2.118508,-1.930086,0.620029,-0.575495,-0.133900,0.046234,-166.416565,-14.123721,-78.245872
00721,627900000,1970,1,1,0,0,30,0,1.699211,0.531190,-4.158648,-2.002170,-1.922262,0.741226,-0.564522,-0.125271,0.054956,-167.504700,-12.936478,-78.418709
00722,637900000,1970,1,1,0,0,30,0,2.215190,1.287548,-3.772340,-1.996440,-1.958216,0.873513,-0.567635,-0.119125,0.062493,-168.574554,-11.717560,-78.683922
00723,647900000,1970,1,1,0,0,30,0,2.201256,2.569440,-4.071667,-1.905143,-2.068323,1.028186,-0.562640,-0.118717,0.073271,-169.580765,-10.425965,-79.046135
00724,657900000,1970,1,1,0,0,30,0,1.945659,3.127178,-5.633464,-1.981073,-2.003394,1.295494,-0.579015,-0.101302,0.071982,-170.610062,-9.152418,-79.586914
00725,667900000,1970,1,1,0,0,30,0,1.384325,3.148015,-7.247771,-2.165505,-1.776618,1.595113,-0.565691,-0.098134,0.086056,-171.727386,-7.991819,-80.345268
00726,677900000,1970,1,1,0,0,30,0,0.806110,3.188884,-8.579546,-2.394298,-1.410577,1.865028,-0.573574,-0.089700,0.080256,-172.965698,-7.034747,-81.303108
00727,687900000,1970,1,1,0,0,30,0,0.356066,3.105261,-9.011119,-2.625624,-1.031428,2.125860,-0.573817,-0.074988,0.090660,-174.330948,-6.298934,-82.455841
00728,697900000,1970,1,1,0,0,30,0,-0.325004,2.312494,-9.043017,-2.782335,-0.743155,2.400220,-0.570508,-0.049426,0.093637,-175.781784,-5.742372,-83.796600
00729,707900000,1970,1,1,0,0,30,0,-0.661341,1.288431,-8.900166,-2.950940,-0.523540,2.636227,-0.576192,-0.046317,0.095767,-177.327301,-5.337847,-85.295334
00730,717900000,1970,1,1,0,0,30,0,-1.320843,-0.260114,-8.303225,-2.921149,-0.431877,2.718448,-0.578250,-0.029524,0.090489,-178.860992,-5.024108,-86.847923
00731,727900000,1970,1,1,0,0,30,0,-1.659626,-1.308558,-7.279253,-2.889236,-0.432788,2.578731,-0.572577,-0.021029,0.093589,179.609268,-4.751024,-88.329407
00732,737900000,1970,1,1,0,0,30,0,-1.488234,-1.108129,-6.493526,-2.889892,-0.545743,2.330598,-0.574867,-0.001130,0.093485,178.061447,-4.449317,-89.673851
00733,747900000,1970,1,1,0,0,30,0,-1.612968,0.039603,-6.838552,-2.873353,-0.668137,2.076699,-0.563967,0.004667,0.102188,176.505951,-4.106311,-90.885490
00734,757900000,1970,1,1,0,0,30,0,-1.664477,1.041105,-7.694788,-2.821979,-0.662679,1.977094,-0.574433,0.021670,0.096210,174.969620,-3.794238,-92.045311
00735,767900000,1970,1,1,0,0,30,0,-1.284064,1.626987,-8.171934,-2.833508,-0.561027,1.949989,-0.566110,0.030232,0.102121,173.419937,-3.568981,-93.193336
00736,777900000,1970,1,1,0,0,30,0,-1.500238,1.975677,-8.581306,-2.894279,-0.407209,1.897135,-0.579751,0.038943,0.098433,171.829285,-3.458204,-94.303757
00737,787900000,1970,1,1,0,0,30,0,-1.664554,2.007504,-9.030144,-2.955111,-0.185317,1.880856,-0.560302,0.055998,0.110487,170.200943,-3.502109,-95.386566
00738,797900000,1970,1,1,0,0,30,0,-1.443772,1.701408,-8.885082,-3.168818,0.080645,1.887065,-0.565688,0.064636,0.110076,168.450546,-3.727393,-96.446434
00739,807900000,1970,1,1,0,0,30,0,-1.351960,1.273371,-8.609862,-3.458964,0.267926,1.818788,-0.568569,0.067675,0.112439,166.534454,-4.082082,-97.433876
00740,817900000,1970,1,1,0,0,30,0,-1.402251,0.944304,-8.345352,-3.731477,0.439212,1.643294,-0.565096,0.081496,0.107609,164.459335,-4.540146,-98.284767
00741,827900000,1970,1,1,0,0,30,0,-1.077221,1.138368,-8.229741,-4.019402,0.586888,1.355282,-0.567983,0.090338,0.112587,162.210297,-5.062898,-98.937798
00742,837900000,1970,1,1,0,0,30,0,-0.680803,2.499299,-8.355618,-4.170792,0.713267,1.186379,-0.565034,0.095933,0.112857,159.868683,-5.647731,-99.453659
00743,847900000,1970,1,1,0,0,30,0,-0.031866,3.542821,-7.731617,-4.312522,0.847478,1.194683,-0.553835,0.107259,0.119019,157.446671,-6.326283,-99.920433
00744,857900000,1970,1,1,0,0,30,0,0.354585,4.332099,-7.025676,-4.441351,0.971161,1.243545,-0.572849,0.113003,0.109690,154.952591,-7.099902,-100.357796
00745,867900000,1970,1,1,0,0,30,0,0.739916,4.628448,-6.520595,-4.467910,1.069523,1.235343,-0.564210,0.109687,0.105216,152.440567,-7.940207,-100.725967
00746,877900000,1970,1,1,0,0,30,0,0.614194,4.789146,-6.585809,-4.609728,1.154225,1.267078,-0.569516,0.115355,0.102208,149.845596,-8.847405,-101.047516
00747,887900000,1970,1,1,0,0,30,0,0.210861,3.895313,-6.884298,-4.937460,1.418453,1.266217,-0.567019,0.115559,0.107597,147.047592,-9.897267,-101.246132
00748,897900000,1970,1,1,0,0,30,0,0.102150,3.012110,-6.878572,-5.358312,1.790961,1.103201,-0.563691,0.123714,0.102730,143.965897,-11.078415,-101.189247
00749,907900000,1970,1,1,0,0,30,0,0.629506,2.866564,-6.039151,-5.615730,2.095875,0.850392,-0.552036,0.134629,0.101159,140.676865,-12.303795,-100.839722
00750,917900000,1970,1,1,0,0,30,0,0.876391,3.523246,-5.432780,-5.655962,2.208062,0.574410,-0.565591,0.134567,0.092259,137.304962,-13.451515,-100.253448
00751,927900000,1970,1,1,0,0,30,0,1.121546,4.773305,-5.377456,-5.434129,2.178909,0.321251,-0.556800,0.131115,0.085207,134.010254,-14.450529,-99.495132
00752,937900000,1970,1,1,0,0,30,0,0.829568,5.781630,-5.787796,-4.978885,2.128202,0.143938,-0.568077,0.122759,0.081641,130.936981,-15.312363,-98.629097
00753,947900000,1970,1,1,0,0,30,0,0.185192,6.069824,-6.036640,-4.451882,2.156780,0.002046,-0.570581,0.128357,0.078867,128.123108,-16.077339,-97.645683
00754,957900000,1970,1,1,0,0,30,0,-0.194084,6.144597,-5.463936,-4.151014,2.284636,-0.049983,-0.561112,0.132992,0.064136,125.435608,-16.814955,-96.546593
00755,967900000,1970,1,1,0,0,30,0,-0.211336,6.158882,-4.551373,-4.185750,2.521545,-0.050847,-0.572469,0.127606,0.063166,122.668297,-17.576040,-95.286240
00756,977900000,1970,1,1,0,0,30,0,0.147968,6.819111,-2.769322,-4.372526,2.781511,-0.062919,-0.577025,0.144195,0.052499,119.722343,-18.346212,-93.846703
00757,987900000,1970,1,1,0,0,30,0,0.791721,7.025319,-1.295403,-4.197176,2.638098,-0.195792,-0.571402,0.126648,0.045121,116.857979,-18.938810,-92.403107
00758,997900000,1970,1,1,0,0,30,0,0.897126,8.571782,-0.973516,-3.619775,2.661320,-0.625423,-0.573364,0.123064,0.029402,114.261475,-19.248716,-90.795418
00759,7900000,1970,1,1,0,0,31,0,0.627064,9.681298,-1.368643,-3.050774,2.444528,-0.608313,-0.573133,0.119958,0.024228,112.019699,-19.453758,-89.296242
00760,17900000,1970,1,1,0,0,31,0,-0.168639,9.816178,-4.530019,-2.767381,2.443041,-0.492222,-0.569568,0.119204,0.011572,109.939934,-19.665956,-87.818520
00761,27900000,1970,1,1,0,0,31,0,-0.398738,10.673960,-5.416972,-2.982230,2.926246,-0.255816,-0.569038,0.121626,0.003857,107.648369,-20.040739,-86.095345
00762,37900000,1970,1,1,0,0,31,0,-0.497084,11.318865,-3.854537,-3.235164,3.499648,0.207307,-0.576305,0.123710,-0.014870,105.102119,-20.691860,-84.100136
00763,47900000,1970,1,1,0,0,31,0,0.311118,10.435767,-1.260597,-3.345043,3.741541,0.760545,-0.569566,0.131248,-0.029815,102.430969,-21.595968,-81.997261
00764,57900000,1970,1,1,0,0,31,0,1.972765,10.113943,1.669629,-3.231962,3.463249,0.867247,-0.571234,0.138995,-0.045460,99.841934,-22.436607,-80.022758
00765,67900000,1970,1,1,0,0,31,0,2.837323,11.746030,3.077592,-2.739094,3.084319,0.784916,-0.558975,0.155165,-0.054728,97.578362,-23.118658,-78.223366
00766,77900000,1970,1,1,0,0,31,0,2.751990,13.177663,2.734161,-2.315520,2.688811,1.017746,-0.563592,0.157317,-0.070643,95.625351,-23.844873,-76.651619
00767,87900000,1970,1,1,0,0,31,0,2.575222,14.030451,0.839352,-2.255428,2.324234,1.378670,-0.549060,0.170995,-0.071963,93.771957,-24.710857,-75.284416
00768,97900000,1970,1,1,0,0,31,0,2.460099,14.181754,0.214735,-2.267866,2.329391,1.945085,-0.542400,0.181502,-0.084312,91.877136,-25.858208,-73.895958
00769,107900000,1970,1,1,0,0,31,0,3.035658,13.610546,0.108622,-2.351160,2.423080,2.758554,-0.530366,0.194976,-0.091021,89.854477,-27.427250,-72.388962
00770,117900000,1970,1,1,0,0,31,0,3.136010,12.525582,0.674664,-2.494890,2.484241,3.444598,-0.537133,0.228495,-0.104388,87.642838,-29.336065,-70.745781
00771,127900000,1970,1,1,0,0,31,0,3.052184,11.705080,0.767254,-2.684979,2.266094,3.933471,-0.511555,0.253635,-0.096967,85.273491,-31.471193,-69.107178
00772,137900000,1970,1,1,0,0,31,0,3.406419,10.514329,0.453736,-2.836981,2.315964,4.303010,-0.521118,0.281421,-0.113183,82.650459,-33.748268,-67.267593
00773,147900000,1970,1,1,0,0,31,0,4.286071,9.200721,1.082227,-3.028518,2.421809,4.303483,-0.489404,0.308845,-0.113011,79.712349,-35.936974,-65.165176
00774,157900000,1970,1,1,0,0,31,0,5.247769,7.857753,1.923591,-2.862670,2.419107,4.196952,-0.488287,0.333929,-0.120578,76.698730,-37.972599,-62.884892
00775,167900000,1970,1,1,0,0,31,0,6.261850,6.929216,2.375511,-2.624202,2.336349,3.894896,-0.468467,0.359346,-0.111046,73.712242,-39.754089,-60.527592
00776,177900000,1970,1,1,0,0,31,0,7.025401,6.411196,2.604915,-2.625758,2.216588,3.432609,-0.447952,0.375444,-0.117037,70.683952,-41.204887,-58.195412
00777,187900000,1970,1,1,0,0,31,0,7.457530,6.853994,2.647520,-2.711633,2.109399,3.004155,-0.425171,0.394851,-0.112464,67.596703,-42.351608,-55.894398
00778,197900000,1970,1,1,0,0,31,0,7.855166,8.457506,2.784883,-2.563417,2.095901,2.801075,-0.418821,0.411435,-0.117043,64.532196,-43.301228,-53.552063
00779,207900000,1970,1,1,0,0,31,0,8.089745,10.107372,3.010538,-2.288539,2.061305,2.867555,-0.410352,0.425663,-0.111095,61.527416,-44.201118,-51.105556
00780,217900000,1970,1,1,0,0,31,0,7.308383,10.624701,3.238838,-1.973078,1.920555,3.247088,-0.387339,0.441964,-0.111697,58.563824,-45.235291,-48.512035
00781,227900000,1970,1,1,0,0,31,0,6.483535,9.990231,1.762595,-1.581517,1.838068,3.810856,-0.355998,0.461026,-0.109002,55.558498,-46.467796,-45.588257
00782,237900000,1970,1,1,0,0,31,0,5.550607,7.785801,1.001374,-1.339400,2.005373,4.452298,-0.343659,0.474227,-0.120866,52.209152,-47.825081,-42.068447
00783,247900000,1970,1,1,0,0,31,0,4.444970,4.252491,1.480480,-1.219974,2.106541,4.761255,-0.312018,0.498817,-0.120713,48.539589,-49.132160,-38.101639
00784,257900000,1970,1,1,0,0,31,0,4.186038,1.372121,2.604104,-1.109644,2.241196,4.694693,-0.286277,0.512216,-0.121100,44.677826,-50.182701,-33.872414
00785,267900000,1970,1,1,0,0,31,0,4.592018,-0.560672,3.481804,-1.175806,2.386568,4.311137,-0.249477,0.525472,-0.117976,40.726471,-50.833672,-29.632246
00786,277900000,1970,1,1,0,0,31,0,4.384973,-0.217076,4.098345,-1.335615,2.545158,3.751170,-0.240556,0.545092,-0.117147,36.822243,-51.026558,-25.591024
00787,287900000,1970,1,1,0,0,31,0,4.677234,1.147908,4.427705,-1.380694,2.602379,3.315721,-0.221175,0.553513,-0.107726,33.108311,-50.879055,-21.844412
