// General information: 
//  MT Manager version: 2019.0.1 
//  XDA version: 2019.0.1 build 2740 rev 84096 built on 2019-01-30
// Device information: 
//  DeviceId: 077002EC
//  ProductCode: MTi-G-700-2A5G4
//  Firmware Version: 1.4.1
//  Hardware Version: 2.0.0
// Device settings: 
//  Filter Profile: GeneralMag(3.17)
//  Option Flags: Orientation Smoother Disabled, AHS Disabled, ICC Disabled
//  GNSS Platform: Portable
// Coordinate system: ENU
PacketCounter,UTC_Nano,UTC_Year,UTC_Month,UTC_Day,UTC_Hour,UTC_Minute,UTC_Second,UTC_Valid,Acc_X,Acc_Y,Acc_Z,Gyr_X,Gyr_Y,Gyr_Z,Mag_X,Mag_Y,Mag_Z,Roll,Pitch,Yaw
00001,345400000,1970,1,1,0,20,25,0,-0.959290,-0.377638,9.739118,0.003146,-0.016190,-0.005356,0.541234,0.286109,0.134749,-2.237807,5.124744,63.931030
00002,355400000,1970,1,1,0,20,25,0,-0.925513,-0.396467,9.696881,0.005192,-0.016786,-0.006104,0.540939,0.280665,0.137253,-2.231218,5.113458,63.926140
00003,365400000,1970,1,1,0,20,25,0,-0.928399,-0.393805,9.705148,0.001440,-0.018982,-0.004012,0.552343,0.288623,0.135685,-2.226664,5.100963,63.924965
00004,375400000,1970,1,1,0,20,25,0,-0.919268,-0.391913,9.757149,-0.004292,-0.028679,-0.006197,0.546596,0.291820,0.140325,-2.225487,5.082870,63.921741
00005,385400000,1970,1,1,0,20,25,0,-0.875131,-0.399495,9.755221,-0.006969,-0.024747,-0.000699,0.543476,0.277942,0.140005,-2.225578,5.067150,63.918850
00006,395400000,1970,1,1,0,20,25,0,-0.874269,-0.382580,9.809744,-0.009264,-0.010372,0.000426,0.563308,0.285559,0.136585,-2.226951,5.059685,63.921898
00007,405400000,1970,1,1,0,20,25,0,-0.893004,-0.401195,9.902508,-0.005991,-0.006728,-0.001191,0.548989,0.283518,0.143041,-2.226536,5.054274,63.924984
00008,415400000,1970,1,1,0,20,25,0,-0.914615,-0.444124,9.848654,0.001793,-0.012901,-0.001852,0.548911,0.286442,0.145600,-2.221684,5.045310,63.925362
00009,425400000,1970,1,1,0,20,25,0,-0.953584,-0.452233,9.791100,0.005711,-0.017949,-0.003890,0.546758,0.280258,0.132631,-2.214683,5.033411,63.923283
00010,435400000,1970,1,1,0,20,25,0,-0.982831,-0.424186,9.754327,0.016185,-0.024477,-0.000355,0.546524,0.289030,0.140307,-2.201485,5.017857,63.925690
00011,445400000,1970,1,1,0,20,25,0,-0.974298,-0.363304,9.660917,0.014004,-0.032016,0.004572,0.549289,0.283248,0.137960,-2.189282,4.998093,63.926991
00012,455400000,1970,1,1,0,20,25,0,-0.910992,-0.287053,9.561500,0.000670,-0.017166,0.010623,0.543320,0.283790,0.145122,-2.184443,4.986968,63.934765
00013,465400000,1970,1,1,0,20,25,0,-0.871115,-0.288642,9.582938,-0.005864,0.007702,0.022141,0.546758,0.280258,0.132631,-2.182817,4.990334,63.946880
00014,475400000,1970,1,1,0,20,25,0,-0.847820,-0.315031,9.691687,-0.020950,0.011837,0.023500,0.554946,0.294403,0.141032,-2.189773,4.996095,63.961998
00015,485400000,1970,1,1,0,20,25,0,-0.859360,-0.344595,9.739459,-0.028907,0.012897,0.016983,0.555246,0.294133,0.135951,-2.201617,5.002323,63.968754
00016,495400000,1970,1,1,0,20,25,0,-0.885847,-0.380665,9.786098,-0.025554,0.014034,0.011287,0.549139,0.283383,0.140500,-2.211825,5.009076,63.972324
00017,505400000,1970,1,1,0,20,25,0,-0.953104,-0.386632,9.844791,-0.014957,0.008372,0.012126,0.540789,0.280800,0.139793,-2.215908,5.012609,63.980015
00018,515400000,1970,1,1,0,20,25,0,-0.957314,-0.324170,9.851153,-0.012327,-0.005941,0.008587,0.546596,0.291820,0.140325,-2.218637,5.007869,63.985085
00019,525400000,1970,1,1,0,20,25,0,-0.870122,-0.321039,9.737524,-0.003798,-0.010635,0.006072,0.549872,0.299849,0.135528,-2.216593,5.000387,63.985184
00020,535400000,1970,1,1,0,20,25,0,-0.786804,-0.332608,9.659750,-0.006744,-0.006625,0.001297,0.546830,0.283047,0.132649,-2.216485,4.995089,63.979572
00021,545400000,1970,1,1,0,20,25,0,-0.743154,-0.351848,9.670558,-0.016938,-0.011441,0.002842,0.543476,0.277942,0.140005,-2.222128,4.987073,63.981995
00022,555400000,1970,1,1,0,20,25,0,-0.701324,-0.363292,9.704254,-0.022337,-0.019430,-0.000967,0.549590,0.282979,0.132879,-2.231034,4.974399,63.983875
00023,565400000,1970,1,1,0,20,25,0,-0.655495,-0.398388,9.783903,-0.020557,-0.019381,-0.004361,0.540717,0.278011,0.139775,-2.239092,4.961672,63.982872
00024,575400000,1970,1,1,0,20,25,0,-0.644798,-0.425370,9.868409,-0.023364,-0.023091,-0.007119,0.546458,0.280528,0.137712,-2.248886,4.946756,63.980534
00025,585400000,1970,1,1,0,20,25,0,-0.729847,-0.399048,9.923369,-0.016259,-0.017922,-0.006766,0.541228,0.291822,0.137326,-2.254601,4.934805,63.978436
00026,595400000,1970,1,1,0,20,25,0,-0.682823,-0.382169,9.813027,-0.012295,-0.003373,-0.004002,0.549211,0.286172,0.140519,-2.257944,4.931239,63.971298
00027,605400000,1970,1,1,0,20,25,0,-0.718404,-0.431451,9.822949,-0.019337,0.014850,0.011086,0.541078,0.291957,0.139866,-2.264605,4.938450,63.976871
00028,615400000,1970,1,1,0,20,25,0,-0.720952,-0.454340,9.919764,-0.015350,0.013587,0.009302,0.555024,0.291478,0.138474,-2.269073,4.944891,63.976982
00029,625400000,1970,1,1,0,20,25,0,-0.683849,-0.400825,9.847383,-0.016422,0.009283,0.007557,0.543771,0.283386,0.137501,-2.274229,4.948829,63.979633
00030,635400000,1970,1,1,0,20,25,0,-0.708356,-0.307376,9.737265,-0.015994,0.045607,0.013512,0.549500,0.297329,0.140591,-2.278914,4.973695,63.985943
00031,645400000,1970,1,1,0,20,25,0,-0.684676,-0.256239,9.733555,-0.020352,0.078631,0.030159,0.552193,0.288758,0.138226,-2.285330,5.017843,63.996094
00032,655400000,1970,1,1,0,20,25,0,-0.639847,-0.343810,9.824516,-0.030844,0.077156,0.022222,0.543849,0.280462,0.134942,-2.298139,5.060966,64.006165
00033,665400000,1970,1,1,0,20,25,0,-0.618225,-0.322984,9.861763,-0.035854,0.056903,0.002451,0.549433,0.288827,0.137996,-2.314775,5.092039,64.007111
00034,675400000,1970,1,1,0,20,25,0,-0.673196,-0.344245,9.827710,-0.029703,0.039656,-0.019303,0.540789,0.280800,0.139793,-2.328961,5.112728,63.993397
00035,685400000,1970,1,1,0,20,25,0,-0.692187,-0.302910,9.774474,-0.010377,0.026709,-0.035226,0.554730,0.286035,0.140978,-2.332870,5.125628,63.972603
00036,695400000,1970,1,1,0,20,25,0,-0.711848,-0.312852,9.780965,-0.001974,-0.005418,-0.063652,0.541222,0.297535,0.139903,-2.333351,5.119470,63.937115
00037,705400000,1970,1,1,0,20,25,0,-0.701385,-0.232383,9.638268,-0.002642,-0.029648,-0.077041,0.543909,0.294677,0.140114,-2.334846,5.099127,63.886421
00038,715400000,1970,1,1,0,20,25,0,-0.707885,-0.208861,9.502048,-0.005720,-0.023429,-0.083383,0.548983,0.289231,0.145618,-2.338422,5.082187,63.834217
00039,725400000,1970,1,1,0,20,25,0,-0.739000,-0.214771,9.490051,-0.025182,-0.005192,-0.075469,0.541378,0.291687,0.134785,-2.352771,5.075865,63.790073
00040,735400000,1970,1,1,0,20,25,0,-0.731112,-0.288550,9.573765,-0.044381,0.010485,-0.071703,0.549289,0.283248,0.137960,-2.377955,5.078591,63.745140
00041,745400000,1970,1,1,0,20,25,0,-0.806263,-0.360574,9.686847,-0.054629,0.021697,-0.065462,0.546674,0.288895,0.137767,-2.408716,5.087864,63.709347
00042,755400000,1970,1,1,0,20,25,0,-0.909966,-0.430500,9.771887,-0.058686,0.027230,-0.065575,0.549572,0.300118,0.140609,-2.441830,5.100275,63.670368
00043,765400000,1970,1,1,0,20,25,0,-0.968901,-0.499602,9.759208,-0.057743,0.039562,-0.058347,0.543765,0.289099,0.140078,-2.474080,5.119901,63.631054
00044,775400000,1970,1,1,0,20,25,0,-0.983845,-0.572686,9.836114,-0.061075,0.045593,-0.043670,0.548905,0.292155,0.148177,-2.507507,5.143327,63.603844
00045,785400000,1970,1,1,0,20,25,0,-1.071152,-0.635442,9.937848,-0.054916,0.038644,-0.035318,0.538325,0.286312,0.137060,-2.536971,5.162973,63.581528
00046,795400000,1970,1,1,0,20,25,0,-1.111818,-0.638914,10.001462,-0.040411,0.027050,-0.039072,0.551448,0.283719,0.148352,-2.558302,5.175882,63.557655
00047,805400000,1970,1,1,0,20,25,0,-1.117548,-0.667862,10.002770,-0.017157,0.003953,-0.046725,0.549217,0.280459,0.137942,-2.566654,5.175369,63.534187
00048,815400000,1970,1,1,0,20,25,0,-1.130002,-0.635272,9.939573,-0.004857,-0.010903,-0.053885,0.540928,0.292092,0.142407,-2.568296,5.166175,63.507954
00049,825400000,1970,1,1,0,20,25,0,-1.133559,-0.586176,9.809808,0.003441,-0.009374,-0.046470,0.541150,0.294746,0.139884,-2.564806,5.158047,63.478985
00050,835400000,1970,1,1,0,20,25,0,-1.125520,-0.550351,9.768804,0.013367,0.005460,-0.034144,0.540699,0.295151,0.147506,-2.555027,5.158733,63.455807
00051,845400000,1970,1,1,0,20,25,0,-1.086033,-0.531401,9.749037,0.008670,0.004376,-0.022519,0.546452,0.286241,0.140289,-2.547337,5.159100,63.439209
00052,855400000,1970,1,1,0,20,25,0,-1.030303,-0.524362,9.696041,0.010806,0.006401,-0.022914,0.540855,0.289303,0.142389,-2.538447,5.160623,63.427727
00053,865400000,1970,1,1,0,20,25,0,-0.996264,-0.547042,9.699447,-0.002777,0.008949,-0.022812,0.546440,0.297668,0.145443,-2.537348,5.163609,63.413635
00054,875400000,1970,1,1,0,20,25,0,-1.008540,-0.594317,9.756658,-0.007225,-0.001611,-0.027902,0.549277,0.294675,0.143114,-2.539035,5.160423,63.394547
00055,885400000,1970,1,1,0,20,25,0,-1.085177,-0.616190,9.800060,-0.009228,-0.016841,-0.024164,0.549428,0.294540,0.140573,-2.541640,5.148615,63.380104
00056,895400000,1970,1,1,0,20,25,0,-1.137780,-0.620247,9.825275,-0.004122,-0.023563,-0.013027,0.546446,0.291954,0.142866,-2.540732,5.133246,63.372402
00057,905400000,1970,1,1,0,20,25,0,-1.097080,-0.578473,9.883497,0.008798,-0.029080,0.002002,0.538246,0.289236,0.139618,-2.531638,5.115106,63.373966
00058,915400000,1970,1,1,0,20,25,0,-1.018700,-0.515234,9.843956,0.023101,-0.025044,0.011794,0.549350,0.297464,0.143132,-2.513858,5.099524,63.380413
00059,925400000,1970,1,1,0,20,25,0,-0.902857,-0.508679,9.824016,0.028121,-0.013882,0.021574,0.549283,0.288962,0.140537,-2.492735,5.090576,63.390980
00060,935400000,1970,1,1,0,20,25,0,-0.840047,-0.422036,9.782454,0.023660,-0.018080,0.017730,0.546530,0.283317,0.137730,-2.474353,5.079123,63.403316
00061,945400000,1970,1,1,0,20,25,0,-0.792614,-0.374393,9.748362,0.017712,-0.009067,0.012269,0.540933,0.286379,0.139830,-2.459678,5.072694,63.414120
00062,955400000,1970,1,1,0,20,25,0,-0.746741,-0.352005,9.722836,0.017413,0.002658,0.002858,0.543915,0.288964,0.137537,-2.445680,5.072745,63.416393
00063,965400000,1970,1,1,0,20,25,0,-0.771802,-0.353296,9.734001,0.007885,0.001561,-0.006098,0.549506,0.291616,0.138014,-2.437596,5.071945,63.413033
00064,975400000,1970,1,1,0,20,25,0,-0.881317,-0.367782,9.770084,0.008189,-0.017794,-0.011622,0.541523,0.297266,0.134821,-2.429572,5.059929,63.407127
00065,985400000,1970,1,1,0,20,25,0,-0.942309,-0.379432,9.753336,0.008990,-0.039656,-0.013920,0.552042,0.288893,0.140766,-2.421158,5.035344,63.395889
00066,995400000,1970,1,1,0,20,25,0,-0.943989,-0.332430,9.715583,0.020001,-0.042816,-0.006859,0.549355,0.291751,0.140555,-2.406067,5.009124,63.395359
00067,5400000,1970,1,1,0,20,26,0,-0.893452,-0.291345,9.655210,0.024052,-0.032131,-0.005847,0.541673,0.297131,0.132281,-2.388624,4.989047,63.393097
00068,15400000,1970,1,1,0,20,26,0,-0.814228,-0.242390,9.588461,0.029745,-0.019675,-0.003961,0.549722,0.299983,0.138069,-2.367855,4.976149,63.387230
00069,25400000,1970,1,1,0,20,26,0,-0.755840,-0.189442,9.519668,0.021000,-0.017981,-0.003524,0.552421,0.285699,0.133126,-2.352070,4.964227,63.382347
00070,35400000,1970,1,1,0,20,26,0,-0.722965,-0.180241,9.492443,-0.000284,-0.014257,-0.004943,0.552265,0.291547,0.138244,-2.348549,4.954405,63.383953
00071,45400000,1970,1,1,0,20,26,0,-0.756878,-0.216455,9.553205,-0.021371,-0.015486,-0.009103,0.557711,0.288621,0.138685,-2.357316,4.943784,63.380325
00072,55400000,1970,1,1,0,20,26,0,-0.839697,-0.260013,9.614051,-0.031654,-0.021306,-0.011090,0.543765,0.289099,0.140078,-2.372054,4.929780,63.378345
00073,65400000,1970,1,1,0,20,26,0,-0.921803,-0.305882,9.698202,-0.035800,-0.038265,-0.014429,0.557483,0.291679,0.143784,-2.389296,4.905987,63.371174
00074,75400000,1970,1,1,0,20,26,0,-1.002035,-0.350208,9.691993,-0.023657,-0.048610,-0.020047,0.535559,0.292094,0.139407,-2.399827,4.876137,63.363159
00075,85400000,1970,1,1,0,20,26,0,-0.857822,-0.357754,9.746489,-0.052713,-0.068432,-0.024340,0.544282,0.297197,0.135051,-2.427170,4.834830,63.347641
00076,95400000,1970,1,1,0,20,26,0,-0.856585,-0.368755,9.683463,-0.027290,-0.068013,-0.009565,0.549511,0.285903,0.135437,-2.439220,4.794120,63.340527
00077,105400000,1970,1,1,0,20,26,0,-0.782066,-0.449769,9.690987,-0.005366,-0.073364,-0.012147,0.557939,0.285562,0.133586,-2.438813,4.750287,63.338413
00078,115400000,1970,1,1,0,20,26,0,-0.735989,-0.360102,9.775552,-0.024416,-0.072516,-0.003331,0.555246,0.294133,0.135951,-2.448900,4.707156,63.343441
00079,125400000,1970,1,1,0,20,26,0,-0.764193,-0.493409,9.790596,-0.045084,-0.052908,-0.001604,0.550022,0.299714,0.132988,-2.470792,4.675287,63.344357
00080,135400000,1970,1,1,0,20,26,0,-0.685026,-0.507587,9.823661,-0.031954,-0.030874,-0.006509,0.549722,0.299983,0.138069,-2.485435,4.655909,63.338188
00081,145400000,1970,1,1,0,20,26,0,-0.737047,-0.534043,9.906233,-0.034926,-0.025543,-0.010530,0.546891,0.297263,0.137821,-2.501979,4.639477,63.329433
00082,155400000,1970,1,1,0,20,26,0,-0.836453,-0.536086,9.916809,-0.026812,-0.031198,-0.012969,0.541000,0.294881,0.142425,-2.513975,4.619744,63.320023
00083,165400000,1970,1,1,0,20,26,0,-0.933504,-0.498127,9.848823,-0.013767,-0.030823,-0.010487,0.552115,0.291682,0.140785,-2.518381,4.600289,63.311771
00084,175400000,1970,1,1,0,20,26,0,-0.957174,-0.469461,9.772156,-0.011465,-0.018404,-0.002592,0.538847,0.288697,0.129456,-2.521126,4.588146,63.311790
00085,185400000,1970,1,1,0,20,26,0,-0.933530,-0.445376,9.719280,-0.005829,-0.008085,0.007689,0.552415,0.291412,0.135703,-2.520189,4.582170,63.315662
00086,195400000,1970,1,1,0,20,26,0,-0.924065,-0.451559,9.699564,-0.010572,-0.000948,0.016041,0.546746,0.291685,0.137785,-2.521605,4.580491,63.326065
00087,205400000,1970,1,1,0,20,26,0,-0.936276,-0.442889,9.722545,-0.008239,-0.000883,0.017611,0.555096,0.294268,0.138492,-2.521611,4.578891,63.335873
00088,215400000,1970,1,1,0,20,26,0,-0.953247,-0.424337,9.709028,-0.014196,-0.009148,0.018056,0.550022,0.299714,0.132988,-2.524994,4.572572,63.346851
00089,225400000,1970,1,1,0,20,26,0,-0.909234,-0.438484,9.723982,-0.016664,-0.009670,0.019572,0.541156,0.289033,0.137307,-2.529721,4.565994,63.355148
00090,235400000,1970,1,1,0,20,26,0,-0.817673,-0.468404,9.769751,-0.017318,-0.011559,0.017454,0.554657,0.283246,0.140960,-2.534918,4.558290,63.364861
00091,245400000,1970,1,1,0,20,26,0,-0.766195,-0.498602,9.793112,-0.023181,-0.014254,0.013480,0.555168,0.297057,0.138510,-2.543650,4.548942,63.377846
00092,255400000,1970,1,1,0,20,26,0,-0.747840,-0.509045,9.865978,-0.024874,-0.015405,0.014528,0.546674,0.288895,0.137767,-2.553304,4.538962,63.385452
00093,265400000,1970,1,1,0,20,26,0,-0.768083,-0.555758,9.915478,-0.018002,-0.018805,0.012049,0.541456,0.288763,0.132226,-2.559130,4.526973,63.393269
00094,275400000,1970,1,1,0,20,26,0,-0.755019,-0.575472,9.914876,-0.007198,-0.023923,0.012119,0.552788,0.293932,0.130640,-2.558755,4.512054,63.400036
00095,285400000,1970,1,1,0,20,26,0,-0.762327,-0.550013,9.908397,-0.000771,-0.033984,0.007633,0.538096,0.289371,0.142159,-2.554883,4.491263,63.404823
00096,295400000,1970,1,1,0,20,26,0,-0.774469,-0.509588,9.851254,-0.000449,-0.032585,0.007898,0.549361,0.286038,0.137978,-2.550817,4.471280,63.408295
00097,305400000,1970,1,1,0,20,26,0,-0.815772,-0.501718,9.789696,0.004771,-0.025163,0.011039,0.543765,0.289099,0.140078,-2.543642,4.455622,63.417385
00098,315400000,1970,1,1,0,20,26,0,-0.834622,-0.457978,9.740999,0.004615,-0.022077,0.017704,0.541901,0.294072,0.127181,-2.536269,4.441902,63.427513
00099,325400000,1970,1,1,0,20,26,0,-0.843610,-0.435474,9.720900,0.001666,-0.015842,0.024901,0.547197,0.291280,0.130163,-2.530282,4.431930,63.439003
00100,335400000,1970,1,1,0,20,26,0,-0.804536,-0.443349,9.747766,0.001121,-0.012595,0.023973,0.549806,0.291346,0.132933,-2.524651,4.423795,63.452282
00101,345400000,1970,1,1,0,20,26,0,-0.777710,-0.398818,9.766282,0.003997,-0.019798,0.022270,0.546830,0.283047,0.132649,-2.517438,4.411494,63.465279
00102,355400000,1970,1,1,0,20,26,0,-0.733256,-0.385101,9.705658,-0.000387,-0.021410,0.017967,0.544204,0.300121,0.137610,-2.512927,4.398162,63.478725
00103,365400000,1970,1,1,0,20,26,0,-0.684858,-0.399345,9.729875,-0.013211,-0.014122,0.024346,0.552710,0.296856,0.133199,-2.515505,4.389159,63.487408
00104,375400000,1970,1,1,0,20,26,0,-0.694682,-0.434120,9.747289,-0.018489,-0.006035,0.027753,0.541456,0.288763,0.132226,-2.520972,4.384868,63.501274
00105,385400000,1970,1,1,0,20,26,0,-0.723408,-0.443804,9.774780,-0.012907,0.000141,0.026434,0.541462,0.283050,0.129649,-2.523310,4.384081,63.515110
00106,395400000,1970,1,1,0,20,26,0,-0.742162,-0.498904,9.783709,-0.010470,-0.002539,0.025699,0.544210,0.294408,0.135033,-2.524275,4.381743,63.531040
00107,405400000,1970,1,1,0,20,26,0,-0.769157,-0.487419,9.842214,-0.011213,-0.010939,0.032270,0.538847,0.288697,0.129456,-2.525368,4.374762,63.546474
00108,415400000,1970,1,1,0,20,26,0,-0.749706,-0.480483,9.839293,-0.002364,-0.014978,0.031776,0.555180,0.285630,0.133356,-2.521406,4.365455,63.562977
00109,425400000,1970,1,1,0,20,26,0,-0.703424,-0.467919,9.829686,0.004346,-0.005580,0.035591,0.552571,0.285564,0.130586,-2.513449,4.361626,63.586472
00110,435400000,1970,1,1,0,20,26,0,-0.687509,-0.439327,9.845886,0.001986,-0.000804,0.029867,0.555469,0.296787,0.133429,-2.507107,4.360383,63.605865
00111,445400000,1970,1,1,0,20,26,0,-0.635914,-0.436696,9.780405,0.007873,0.000317,0.025122,0.552349,0.282910,0.133108,-2.497602,4.359656,63.617996
00112,455400000,1970,1,1,0,20,26,0,-0.607209,-0.411882,9.745668,0.005996,-0.003436,0.022140,0.544288,0.291484,0.132474,-2.489296,4.356704,63.633949
00113,465400000,1970,1,1,0,20,26,0,-0.655916,-0.383534,9.740114,0.001687,-0.003300,0.019618,0.552337,0.294336,0.138262,-2.483570,4.353762,63.642570
00114,475400000,1970,1,1,0,20,26,0,-0.671819,-0.362352,9.754952,-0.008650,-0.011609,0.021607,0.538847,0.288697,0.129456,-2.483667,4.346109,63.653164
00115,485400000,1970,1,1,0,20,26,0,-0.733471,-0.339085,9.750053,-0.007568,-0.007892,0.022319,0.552415,0.291412,0.135703,-2.483120,4.340604,63.663380
00116,495400000,1970,1,1,0,20,26,0,-0.724392,-0.311422,9.741961,0.000946,0.001153,0.022892,0.536010,0.291690,0.131785,-2.477685,4.340290,63.675629
00117,505400000,1970,1,1,0,20,26,0,-0.631344,-0.328159,9.703730,0.001607,0.005275,0.019110,0.558084,0.291140,0.133622,-2.472045,4.342239,63.681602
00118,515400000,1970,1,1,0,20,26,0,-0.613275,-0.309359,9.680020,-0.005169,-0.005437,0.013151,0.549806,0.291346,0.132933,-2.470520,4.337908,63.689842
00119,525400000,1970,1,1,0,20,26,0,-0.567691,-0.291073,9.617022,-0.009548,-0.007580,0.000785,0.555030,0.285765,0.135897,-2.472035,4.332042,63.688938
00120,535400000,1970,1,1,0,20,26,0,-0.607647,-0.336432,9.605323,-0.022963,-0.001031,-0.005420,0.544065,0.288829,0.134996,-2.481519,4.329772,63.688038
00121,545400000,1970,1,1,0,20,26,0,-0.646025,-0.350934,9.676089,-0.034682,-0.002023,-0.008988,0.554958,0.282976,0.135878,-2.497867,4.326838,63.681175
00122,555400000,1970,1,1,0,20,26,0,-0.685158,-0.405971,9.773942,-0.040808,-0.008085,-0.002776,0.547119,0.294204,0.132722,-2.517441,4.320591,63.683140
00123,565400000,1970,1,1,0,20,26,0,-0.741756,-0.448707,9.884726,-0.033385,-0.006623,-0.004078,0.549361,0.286038,0.137978,-2.532826,4.315145,63.677498
00124,575400000,1970,1,1,0,20,26,0,-0.766885,-0.445900,9.920379,-0.017034,-0.009359,-0.008281,0.557639,0.285831,0.138667,-2.539013,4.308026,63.673634
00125,585400000,1970,1,1,0,20,26,0,-0.738715,-0.451584,9.889136,-0.001262,-0.013732,-0.011828,0.549734,0.288557,0.132915,-2.536305,4.298314,63.669849
00126,595400000,1970,1,1,0,20,26,0,-0.716542,-0.412978,9.776612,0.006306,-0.020290,-0.013580,0.549584,0.288692,0.135456,-2.529326,4.284804,63.662193
00127,605400000,1970,1,1,0,20,26,0,-0.737467,-0.381315,9.678749,-0.006016,-0.018124,-0.015925,0.554813,0.277398,0.135842,-2.529510,4.272474,63.653088
00128,615400000,1970,1,1,0,20,26,0,-0.726224,-0.383520,9.635777,-0.019964,-0.007873,-0.007316,0.541673,0.297131,0.132281,-2.537337,4.266234,63.654781
00129,625400000,1970,1,1,0,20,26,0,-0.709488,-0.409914,9.667999,-0.029720,0.004439,-0.000834,0.552793,0.288219,0.128063,-2.550500,4.267198,63.648197
00130,635400000,1970,1,1,0,20,26,0,-0.679038,-0.458608,9.750303,-0.037875,0.001261,-0.002292,0.549511,0.285903,0.135437,-2.568387,4.266309,63.647377
00131,645400000,1970,1,1,0,20,26,0,-0.654816,-0.499944,9.804281,-0.035313,-0.000987,-0.009335,0.555108,0.282841,0.133338,-2.585107,4.263950,63.642796
00132,655400000,1970,1,1,0,20,26,0,-0.674651,-0.503256,9.879599,-0.033158,-0.000164,-0.014944,0.552193,0.288758,0.138226,-2.600824,4.261913,63.637508
00133,665400000,1970,1,1,0,20,26,0,-0.744779,-0.567939,9.902555,-0.026445,-0.003676,-0.015283,0.555697,0.293728,0.128329,-2.612708,4.257853,63.628860
00134,675400000,1970,1,1,0,20,26,0,-0.816095,-0.585571,9.904143,-0.015658,-0.013253,-0.014021,0.546819,0.294474,0.137803,-2.618342,4.248344,63.619926
00135,685400000,1970,1,1,0,20,26,0,-0.860526,-0.560032,9.889215,-0.006972,-0.016785,-0.013821,0.555475,0.291074,0.130852,-2.618984,4.236816,63.608883
00136,695400000,1970,1,1,0,20,26,0,-0.864706,-0.561638,9.882428,0.001504,-0.020100,-0.008725,0.552265,0.291547,0.138244,-2.614543,4.223529,63.604362
00137,705400000,1970,1,1,0,20,26,0,-0.854624,-0.544762,9.840211,0.007868,-0.019486,-0.006264,0.549590,0.282979,0.132879,-2.606355,4.210661,63.600330
00138,715400000,1970,1,1,0,20,26,0,-0.849220,-0.482635,9.774272,0.006264,-0.022810,-0.003169,0.547275,0.288356,0.127604,-2.598947,4.195974,63.601280
00139,725400000,1970,1,1,0,20,26,0,-0.845531,-0.465492,9.728440,-0.003131,-0.008329,0.005139,0.555246,0.294133,0.135951,-2.596605,4.189792,63.603733
00140,735400000,1970,1,1,0,20,26,0,-0.845508,-0.476556,9.700790,0.000377,-0.000233,0.006926,0.544143,0.285905,0.132438,-2.592195,4.188290,63.606316
00141,745400000,1970,1,1,0,20,26,0,-0.818435,-0.478154,9.713615,-0.007534,-0.001997,0.011530,0.541679,0.291418,0.129704,-2.592120,4.185900,63.612564
00142,755400000,1970,1,1,0,20,26,0,-0.779609,-0.500287,9.740962,-0.006182,0.001554,0.016236,0.552499,0.282775,0.130568,-2.591086,4.185662,63.618446
00143,765400000,1970,1,1,0,20,26,0,-0.735407,-0.535574,9.825232,-0.005242,0.004930,0.011959,0.555102,0.288554,0.135915,-2.589695,4.187252,63.628021
00144,775400000,1970,1,1,0,20,26,0,-0.710512,-0.546416,9.849571,0.002245,-0.001611,0.008800,0.555030,0.285765,0.135897,-2.584136,4.185014,63.633942
00145,785400000,1970,1,1,0,20,26,0,-0.694427,-0.542365,9.836893,0.004258,-0.012760,0.005977,0.546975,0.288626,0.132685,-2.577521,4.176324,63.639668
00146,795400000,1970,1,1,0,20,26,0,-0.708094,-0.477342,9.823846,0.001718,-0.014876,0.006171,0.546674,0.288895,0.137767,-2.572355,4.166422,63.642406
00147,805400000,1970,1,1,0,20,26,0,-0.686601,-0.445820,9.807489,0.004243,-0.007655,0.012828,0.547125,0.288491,0.130145,-2.565475,4.160825,63.648567
00148,815400000,1970,1,1,0,20,26,0,-0.686176,-0.429840,9.799881,0.007131,-0.001961,0.020386,0.552493,0.288488,0.133145,-2.556638,4.158679,63.659222
00149,825400000,1970,1,1,0,20,26,0,-0.661621,-0.390474,9.812534,0.002858,-0.006129,0.018684,0.552643,0.288353,0.130604,-2.550313,4.154104,63.670193
00150,835400000,1970,1,1,0,20,26,0,-0.636855,-0.364883,9.779416,0.015561,-0.004926,0.013398,0.544210,0.294408,0.135033,-2.536933,4.150077,63.678066
00151,845400000,1970,1,1,0,20,26,0,-0.570031,-0.338142,9.728911,0.011075,0.001418,0.010127,0.555475,0.291074,0.130852,-2.526274,4.149597,63.679295
00152,855400000,1970,1,1,0,20,26,0,-0.575694,-0.313340,9.689538,0.008377,0.007547,0.003767,0.549511,0.285903,0.135437,-2.517431,4.152463,63.680820
00153,865400000,1970,1,1,0,20,26,0,-0.567414,-0.312887,9.634480,-0.001851,0.002454,-0.001494,0.552643,0.288353,0.130604,-2.514657,4.152283,63.680382
00154,875400000,1970,1,1,0,20,26,0,-0.554476,-0.321589,9.588710,-0.017966,0.008718,-0.004932,0.538709,0.277405,0.126843,-2.521264,4.155596,63.677444
00155,885400000,1970,1,1,0,20,26,0,-0.557328,-0.364019,9.626585,-0.029623,0.029857,-0.002406,0.544137,0.291619,0.135015,-2.534483,4.171072,63.677013
00156,895400000,1970,1,1,0,20,26,0,-0.653823,-0.442867,9.779288,-0.031054,0.034285,0.003643,0.544288,0.291484,0.132474,-2.548284,4.189229,63.674904
00157,905400000,1970,1,1,0,20,26,0,-0.689473,-0.518689,9.897356,-0.036244,0.025808,-0.000714,0.550034,0.288287,0.127834,-2.565223,4.202425,63.670647
00158,915400000,1970,1,1,0,20,26,0,-0.733439,-0.510888,9.996477,-0.019689,0.017261,-0.004623,0.544137,0.291619,0.135015,-2.572826,4.210627,63.667164
00159,925400000,1970,1,1,0,20,26,0,-0.723635,-0.506747,9.955151,0.004400,0.015308,-0.010138,0.552643,0.288353,0.130604,-2.566856,4.217571,63.657726
00160,935400000,1970,1,1,0,20,26,0,-0.700027,-0.491918,9.879008,0.018480,0.007641,-0.014404,0.549511,0.285903,0.135437,-2.552987,4.220016,63.649509
00161,945400000,1970,1,1,0,20,26,0,-0.717028,-0.465248,9.783045,0.017376,-0.006647,-0.018554,0.555402,0.288285,0.130834,-2.539896,4.214180,63.639660
00162,955400000,1970,1,1,0,20,26,0,-0.721156,-0.412701,9.714515,0.015061,-0.019039,-0.019607,0.546975,0.288626,0.132685,-2.528153,4.201230,63.629894
00163,965400000,1970,1,1,0,20,26,0,-0.719773,-0.384930,9.647419,0.001232,-0.009704,-0.017247,0.546902,0.285837,0.132667,-2.524250,4.193677,63.619190
00164,975400000,1970,1,1,0,20,26,0,-0.719399,-0.380393,9.656393,-0.003341,0.004250,-0.012799,0.555330,0.285496,0.130815,-2.522805,4.194228,63.611969
00165,985400000,1970,1,1,0,20,26,0,-0.741134,-0.399474,9.688575,-0.015802,0.011150,-0.010032,0.547125,0.288491,0.130145,-2.528394,4.198798,63.608288
00166,995400000,1970,1,1,0,20,26,0,-0.789066,-0.433399,9.753635,-0.021369,0.018086,-0.010674,0.552643,0.288353,0.130604,-2.537216,4.207320,63.600788
00167,5400000,1970,1,1,0,20,27,0,-0.848615,-0.463879,9.809095,-0.014625,0.015532,-0.012913,0.552577,0.279851,0.128009,-2.542261,4.214324,63.593460
00168,15400000,1970,1,1,0,20,27,0,-0.817103,-0.522920,9.846127,-0.006409,0.016597,-0.006923,0.544071,0.283116,0.132419,-2.542347,4.222090,63.593227
00169,25400000,1970,1,1,0,20,27,0,-0.804021,-0.539139,9.844261,0.009790,0.004909,-0.007801,0.555252,0.288420,0.133374,-2.533174,4.223147,63.589355
00170,35400000,1970,1,1,0,20,27,0,-0.823021,-0.524758,9.823177,0.011844,-0.012702,-0.009371,0.536016,0.285977,0.129208,-2.522857,4.214088,63.585278
00171,45400000,1970,1,1,0,20,27,0,-0.818477,-0.479017,9.758473,0.014059,-0.025369,-0.006884,0.544371,0.282846,0.127338,-2.511146,4.197840,63.579582
00172,55400000,1970,1,1,0,20,27,0,-0.710148,-0.868010,9.723190,-0.021574,-0.019788,-0.012761,0.546836,0.277334,0.130072,-2.520106,4.184641,63.573742
00173,65400000,1970,1,1,0,20,27,0,-0.764496,-0.212815,10.257911,-0.082406,-0.054534,-0.033509,0.555330,0.285496,0.130815,-2.564715,4.151020,63.559856
00174,75400000,1970,1,1,0,20,27,0,-0.949328,-0.713696,9.741511,0.047711,-0.044680,-0.010539,0.547197,0.291280,0.130163,-2.533832,4.123627,63.557301
00175,85400000,1970,1,1,0,20,27,0,-0.678911,-0.416260,9.720437,-0.020922,0.002636,-0.003274,0.549878,0.294135,0.132951,-2.542067,4.123503,63.553204
00176,95400000,1970,1,1,0,20,27,0,-0.640564,-0.366240,9.770725,0.016214,-0.011125,0.011294,0.552715,0.291143,0.130622,-2.528397,4.115871,63.557213
00177,105400000,1970,1,1,0,20,27,0,-0.648761,-0.440947,9.689821,-0.007921,-0.010777,0.008224,0.552271,0.285834,0.135667,-2.528678,4.108362,63.561497
00178,115400000,1970,1,1,0,20,27,0,-0.645001,-0.407409,9.719915,-0.013504,0.010007,0.008731,0.549956,0.291211,0.130392,-2.532177,4.112760,63.567753
00179,125400000,1970,1,1,0,20,27,0,-0.685177,-0.398932,9.811656,-0.005560,0.024475,0.015137,0.538408,0.277675,0.131924,-2.530887,4.125599,63.574310
00180,135400000,1970,1,1,0,20,27,0,-0.673218,-0.452437,9.810616,0.003645,0.009210,0.017564,0.544143,0.285905,0.132438,-2.524190,4.129762,63.585892
00181,145400000,1970,1,1,0,20,27,0,-0.694182,-0.398886,9.817861,0.037977,-0.002836,0.014396,0.555180,0.285630,0.133356,-2.497934,4.126948,63.593578
00182,155400000,1970,1,1,0,20,27,0,-0.628528,-0.420095,9.731884,0.036695,0.005037,0.013371,0.550479,0.293596,0.122789,-2.472467,4.128609,63.603214
00183,165400000,1970,1,1,0,20,27,0,-0.606040,-0.274275,9.830718,0.054594,0.008920,0.007558,0.558528,0.296449,0.128577,-2.436994,4.132347,63.604691
00184,175400000,1970,1,1,0,20,27,0,-0.627638,-0.377620,9.671388,0.048125,0.004463,-0.004581,0.549662,0.285768,0.132897,-2.405720,4.133234,63.600037
00185,185400000,1970,1,1,0,20,27,0,-0.577779,-0.293816,9.654448,0.034518,-0.008299,-0.007220,0.555475,0.291074,0.130852,-2.382324,4.126753,63.596848
00186,195400000,1970,1,1,0,20,27,0,-0.585618,-0.273275,9.637647,0.004321,0.000569,-0.005401,0.549890,0.282709,0.127797,-2.376170,4.125395,63.593544
00187,205400000,1970,1,1,0,20,27,0,-0.598734,-0.305524,9.718382,-0.005936,0.005235,-0.012065,0.558234,0.291005,0.131081,-2.376174,4.126549,63.588726
00188,215400000,1970,1,1,0,20,27,0,-0.640730,-0.381497,9.674399,-0.021401,0.009081,-0.011282,0.539148,0.288427,0.124375,-2.385011,4.129918,63.582539
00189,225400000,1970,1,1,0,20,27,0,-0.726152,-0.315868,9.850017,-0.020162,0.004837,-0.016294,0.544288,0.291484,0.132474,-2.393341,4.130737,63.570141
00190,235400000,1970,1,1,0,20,27,0,-0.746159,-0.444032,9.813769,-0.004410,-0.007538,-0.020243,0.547119,0.294204,0.132722,-2.392785,4.124375,63.555805
00191,245400000,1970,1,1,0,20,27,0,-0.703214,-0.400340,9.853440,0.033319,-0.004821,-0.025023,0.552487,0.294202,0.135721,-2.370814,4.119458,63.538185
00192,255400000,1970,1,1,0,20,27,0,-0.774595,-0.441558,9.755330,0.027412,-0.008582,-0.027778,0.550022,0.299714,0.132988,-2.352333,4.112329,63.520527
00193,265400000,1970,1,1,0,20,27,0,-0.779486,-0.442354,9.765374,0.020758,-0.018224,-0.025505,0.552715,0.291143,0.130622,-2.337553,4.099739,63.501507
00194,275400000,1970,1,1,0,20,27,0,-0.777507,-0.440332,9.828034,0.026124,-0.015515,-0.024589,0.549812,0.285633,0.130356,-2.319660,4.088727,63.487564
00195,285400000,1970,1,1,0,20,27,0,-0.768561,-0.499827,9.775009,0.025058,-0.004712,-0.022124,0.552860,0.296721,0.130658,-2.302289,4.083964,63.476624
00196,295400000,1970,1,1,0,20,27,0,-0.783387,-0.413576,9.722654,0.016657,-0.006281,-0.014865,0.541823,0.296996,0.129740,-2.289440,4.078470,63.465744
00197,305400000,1970,1,1,0,20,27,0,-0.771708,-0.393250,9.671152,0.009427,-0.003143,-0.004657,0.541745,0.299920,0.132299,-2.280324,4.075010,63.457996
00198,315400000,1970,1,1,0,20,27,0,-0.712641,-0.372661,9.713410,-0.003803,0.008780,0.007752,0.547341,0.296858,0.130199,-2.278300,4.078657,63.455914
00199,325400000,1970,1,1,0,20,27,0,-0.691439,-0.430513,9.730369,-0.027268,0.022953,0.011185,0.544510,0.294138,0.129951,-2.289602,4.090500,63.458263
00200,335400000,1970,1,1,0,20,27,0,-0.697111,-0.432158,9.810172,-0.019809,0.021571,0.013846,0.544288,0.291484,0.132474,-2.296517,4.101612,63.462730
00201,345400000,1970,1,1,0,20,27,0,-0.699025,-0.453799,9.893502,-0.009005,0.015846,0.009763,0.552571,0.285564,0.130586,-2.297401,4.109355,63.466133
00202,355400000,1970,1,1,0,20,27,0,-0.711753,-0.455961,9.809923,-0.019884,0.003695,0.003906,0.549878,0.294135,0.132951,-2.304733,4.110007,63.470955
00203,365400000,1970,1,1,0,20,27,0,-0.754638,-0.424146,9.805705,-0.006711,-0.009215,0.000478,0.542045,0.299650,0.127218,-2.304643,4.103190,63.469658
00204,375400000,1970,1,1,0,20,27,0,-0.787793,-0.369012,9.744965,-0.010150,-0.012216,0.000135,0.555625,0.290939,0.128311,-2.306533,4.094645,63.464001
00205,385400000,1970,1,1,0,20,27,0,-0.785427,-0.365001,9.709785,-0.000875,-0.018331,0.004626,0.550179,0.293866,0.127870,-2.302912,4.082706,63.468128
00206,395400000,1970,1,1,0,20,27,0,-0.738112,-0.334294,9.722267,-0.003227,-0.017720,0.007055,0.549956,0.291211,0.130392,-2.300541,4.071173,63.471043
00207,405400000,1970,1,1,0,20,27,0,-0.666523,-0.353686,9.728416,-0.008690,-0.005657,0.006008,0.549656,0.291481,0.135474,-2.301364,4.066521,63.474171
00208,415400000,1970,1,1,0,20,27,0,-0.622700,-0.335353,9.695983,-0.016328,0.007017,0.003604,0.547341,0.296858,0.130199,-2.306679,4.069069,63.475449
00209,425400000,1970,1,1,0,20,27,0,-0.612885,-0.338239,9.731796,-0.024378,0.015905,-0.000352,0.552715,0.291143,0.130622,-2.316781,4.076613,63.471336
00210,435400000,1970,1,1,0,20,27,0,-0.658495,-0.378874,9.734762,-0.021013,0.016903,-0.004954,0.546981,0.282913,0.130108,-2.325145,4.084622,63.468319
00211,445400000,1970,1,1,0,20,27,0,-0.673962,-0.414787,9.768733,-0.028923,0.012332,-0.010739,0.558234,0.291005,0.131081,-2.338269,4.089877,63.464413
00212,455400000,1970,1,1,0,20,27,0,-0.741047,-0.418369,9.800515,-0.011870,0.002511,-0.007731,0.549962,0.285498,0.127816,-2.341487,4.089582,63.461407
00213,465400000,1970,1,1,0,20,27,0,-0.767658,-0.442811,9.759599,-0.013656,-0.004408,-0.014238,0.547125,0.288491,0.130145,-2.345978,4.085170,63.455353
00214,475400000,1970,1,1,0,20,27,0,-0.765799,-0.423825,9.754213,-0.012490,-0.019941,-0.015522,0.538841,0.294410,0.132033,-2.349832,4.071838,63.446960
00215,485400000,1970,1,1,0,20,27,0,-0.789966,-0.436829,9.770885,-0.005564,-0.025103,-0.009953,0.555619,0.296652,0.130888,-2.349481,4.055678,63.437473
00216,495400000,1970,1,1,0,20,27,0,-0.794165,-0.408505,9.781325,-0.005647,-0.015620,0.000930,0.547047,0.291415,0.132704,-2.348749,4.045208,63.436954
00217,505400000,1970,1,1,0,20,27,0,-0.786740,-0.375168,9.834999,-0.000799,-0.000203,0.013645,0.552427,0.279986,0.130549,-2.344747,4.043859,63.443680
00218,515400000,1970,1,1,0,20,27,0,-0.763934,-0.415500,9.750481,-0.003896,0.007234,0.016551,0.541684,0.285704,0.127127,-2.342420,4.046841,63.458004
00219,525400000,1970,1,1,0,20,27,0,-0.703127,-0.402033,9.696289,0.008026,-0.000047,0.011995,0.550028,0.294001,0.130411,-2.333432,4.045546,63.464863
00220,535400000,1970,1,1,0,20,27,0,-0.680162,-0.365941,9.656004,-0.008825,-0.003891,0.006449,0.549656,0.291481,0.135474,-2.334316,4.041919,63.466885
00221,545400000,1970,1,1,0,20,27,0,-0.654739,-0.361517,9.656575,-0.016797,-0.009861,0.005068,0.555330,0.285496,0.130815,-2.339813,4.034846,63.469261
00222,555400000,1970,1,1,0,20,27,0,-0.662854,-0.390390,9.665604,-0.016289,-0.008733,0.007654,0.544660,0.294003,0.127411,-2.344915,4.028482,63.476944
00223,565400000,1970,1,1,0,20,27,0,-0.626541,-0.442638,9.738447,-0.036537,-0.000188,0.015873,0.563530,0.288213,0.134063,-2.361301,4.027198,63.482967
00224,575400000,1970,1,1,0,20,27,0,-0.641519,-0.440664,9.814808,-0.049237,0.011855,0.020961,0.549956,0.291211,0.130392,-2.384778,4.032934,63.498260
00225,585400000,1970,1,1,0,20,27,0,-0.659842,-0.492533,9.955688,-0.035155,0.013681,0.016870,0.566355,0.296647,0.136888,-2.400359,4.039616,63.506752
00226,595400000,1970,1,1,0,20,27,0,-0.657403,-0.565965,9.996388,-0.023225,0.005971,0.008580,0.549662,0.285768,0.132897,-2.409424,4.041690,63.511909
00227,605400000,1970,1,1,0,20,27,0,-0.672818,-0.537979,9.970273,-0.003223,-0.008966,0.002101,0.549584,0.288692,0.135456,-2.407268,4.035056,63.514553
00228,615400000,1970,1,1,0,20,27,0,-0.710609,-0.487333,9.894531,0.008479,-0.009997,0.001427,0.547125,0.288491,0.130145,-2.398433,4.027812,63.515533
00229,625400000,1970,1,1,0,20,27,0,-0.669624,-0.428541,9.782443,0.015965,-0.002617,0.010165,0.538997,0.288562,0.126915,-2.384977,4.025003,63.520905
00230,635400000,1970,1,1,0,20,27,0,-0.602144,-0.439276,9.720362,0.008543,0.000137,0.012843,0.555168,0.297057,0.138510,-2.375665,4.023834,63.525875
00231,645400000,1970,1,1,0,20,27,0,-0.567961,-0.440225,9.754127,-0.002476,0.002507,0.010513,0.544143,0.285905,0.132438,-2.372768,4.023963,63.529453
00232,655400000,1970,1,1,0,20,27,0,-0.599404,-0.428607,9.796633,-0.008261,0.003904,0.005734,0.541823,0.296996,0.129740,-2.373376,4.024778,63.532570
00233,665400000,1970,1,1,0,20,27,0,-0.621454,-0.448844,9.865849,-0.011446,0.010217,0.001439,0.541835,0.285569,0.124586,-2.375998,4.029103,63.527817
00234,675400000,1970,1,1,0,20,27,0,-0.681267,-0.463445,9.905984,-0.001713,0.012339,-0.000660,0.546830,0.283047,0.132649,-2.373130,4.034593,63.526749
00235,685400000,1970,1,1,0,20,27,0,-0.749525,-0.452578,9.869480,0.002117,0.005166,-0.006405,0.556075,0.290534,0.120689,-2.368284,4.035841,63.524757
00236,695400000,1970,1,1,0,20,27,0,-0.756381,-0.423157,9.843666,0.011846,-0.001897,-0.003188,0.544732,0.296792,0.127429,-2.357722,4.033123,63.523647
00237,705400000,1970,1,1,0,20,27,0,-0.738449,-0.376087,9.826454,0.017414,-0.006504,-0.001636,0.547203,0.285567,0.127586,-2.343906,4.027800,63.518269
00238,715400000,1970,1,1,0,20,27,0,-0.734908,-0.336252,9.752111,0.025910,-0.009428,-0.007020,0.549806,0.291346,0.132933,-2.325427,4.020685,63.515377
00239,725400000,1970,1,1,0,20,27,0,-0.742741,-0.322461,9.680467,0.027857,-0.011237,-0.010780,0.544816,0.288155,0.122293,-2.305980,4.012448,63.508453
00240,735400000,1970,1,1,0,20,27,0,-0.743663,-0.308691,9.604746,0.021395,-0.015672,-0.010146,0.544288,0.291484,0.132474,-2.290204,4.001688,63.502319
00241,745400000,1970,1,1,0,20,27,0,-0.746976,-0.296940,9.558630,0.008916,-0.012431,-0.008806,0.547636,0.302302,0.127695,-2.281526,3.992817,63.495346
00242,755400000,1970,1,1,0,20,27,0,-0.714706,-0.315001,9.593356,-0.000165,-0.011226,0.002582,0.544444,0.285636,0.127356,-2.277598,3.984897,63.491043
00243,765400000,1970,1,1,0,20,27,0,-0.677141,-0.311751,9.631908,-0.012631,-0.004997,0.010172,0.550106,0.291076,0.127852,-2.280521,3.980715,63.497543
00244,775400000,1970,1,1,0,20,27,0,-0.592271,-0.354303,9.740921,-0.018752,0.000347,0.007623,0.547197,0.291280,0.130163,-2.287060,3.979535,63.501308
00245,785400000,1970,1,1,0,20,27,0,-0.542920,-0.365174,9.811350,-0.022773,-0.004580,-0.000877,0.541829,0.291283,0.127163,-2.296229,3.975340,63.499554
00246,795400000,1970,1,1,0,20,27,0,-0.510749,-0.362780,9.836823,-0.019078,0.003004,-0.006339,0.555769,0.296517,0.128347,-2.303511,3.975358,63.493301
00247,805400000,1970,1,1,0,20,27,0,-0.533982,-0.371671,9.833189,-0.016599,0.002873,-0.008787,0.555475,0.291074,0.130852,-2.309472,3.975244,63.486526
00248,815400000,1970,1,1,0,20,27,0,-0.568986,-0.397327,9.816485,-0.013513,0.001034,-0.011489,0.544288,0.291484,0.132474,-2.313766,3.974011,63.480564
00249,825400000,1970,1,1,0,20,27,0,-0.587880,-0.412446,9.827845,-0.018737,0.002228,-0.006543,0.546902,0.285837,0.132667,-2.320858,3.973573,63.474792
00250,835400000,1970,1,1,0,20,27,0,-0.590525,-0.420334,9.849984,-0.020356,0.009470,-0.005016,0.544444,0.285636,0.127356,-2.328827,3.977315,63.472736
00251,845400000,1970,1,1,0,20,27,0,-0.576764,-0.450656,9.873311,-0.015460,0.016771,-0.006368,0.541606,0.288628,0.129686,-2.334059,3.985205,63.469269
00252,855400000,1970,1,1,0,20,27,0,-0.578730,-0.482547,9.912107,-0.012171,0.021039,-0.010727,0.549812,0.285633,0.130356,-2.337589,3.995433,63.461269
00253,865400000,1970,1,1,0,20,27,0,-0.614267,-0.515470,9.898399,0.000331,0.013636,-0.018919,0.555481,0.285361,0.128275,-2.334274,4.001232,63.451885
00254,875400000,1970,1,1,0,20,27,0,-0.690343,-0.505363,9.863589,0.010198,0.003036,-0.022055,0.552571,0.285564,0.130586,-2.325413,4.000888,63.442337
00255,885400000,1970,1,1,0,20,27,0,-0.721060,-0.496421,9.797441,0.009780,0.000975,-0.020604,0.544438,0.291349,0.129933,-2.316733,3.999404,63.432972
00256,895400000,1970,1,1,0,20,27,0,-0.720477,-0.485755,9.805634,0.007623,-0.004470,-0.015580,0.555925,0.290669,0.123230,-2.309081,3.994915,63.422310
00257,905400000,1970,1,1,0,20,27,0,-0.760696,-0.470196,9.802207,0.006285,0.000759,-0.011104,0.550184,0.288152,0.125293,-2.302022,3.993528,63.417057
00258,915400000,1970,1,1,0,20,27,0,-0.773312,-0.463236,9.790533,0.009912,-0.000944,-0.008897,0.560693,0.291206,0.136392,-2.292798,3.991218,63.412903
00259,925400000,1970,1,1,0,20,27,0,-0.801290,-0.425290,9.779189,0.007976,0.004786,-0.003732,0.541901,0.294072,0.127181,-2.284487,3.992308,63.412640
00260,935400000,1970,1,1,0,20,27,0,-0.837530,-0.417535,9.765710,0.005597,0.015817,0.000890,0.550257,0.290942,0.125311,-2.277375,3.999820,63.409252
00261,945400000,1970,1,1,0,20,27,0,-0.865762,-0.421689,9.743393,0.008186,0.015368,0.006935,0.544438,0.291349,0.129933,-2.268533,4.007215,63.412674
00262,955400000,1970,1,1,0,20,27,0,-0.918505,-0.386791,9.661967,0.008439,0.015457,0.010963,0.560921,0.288147,0.131293,-2.259381,4.014754,63.416882
00263,965400000,1970,1,1,0,20,27,0,-0.949802,-0.401463,9.641850,0.001120,0.015722,0.019614,0.536082,0.294479,0.131803,-2.254075,4.022643,63.431210
00264,975400000,1970,1,1,0,20,27,0,-0.946050,-0.383423,9.676689,-0.005620,0.002411,0.029091,0.541973,0.296861,0.127199,-2.252236,4.023125,63.442726
00265,985400000,1970,1,1,0,20,27,0,-0.896845,-0.358010,9.738331,-0.001568,0.000894,0.036082,0.545183,0.296388,0.119807,-2.247792,4.022896,63.458611
00266,995400000,1970,1,1,0,20,27,0,-0.825350,-0.364201,9.721992,0.003735,0.003224,0.036376,0.544137,0.291619,0.135015,-2.240299,4.024009,63.475563
00267,5400000,1970,1,1,0,20,28,0,-0.726979,-0.343128,9.699599,0.004104,0.000212,0.033432,0.541684,0.285704,0.127127,-2.232704,4.023333,63.492680
00268,15400000,1970,1,1,0,20,28,0,-0.680983,-0.318014,9.708889,0.001740,-0.006676,0.022928,0.547269,0.294069,0.130181,-2.226877,4.018477,63.505878
00269,25400000,1970,1,1,0,20,28,0,-0.658614,-0.286389,9.692457,-0.004599,-0.013382,0.016204,0.533924,0.294008,0.121411,-2.224942,4.009630,63.512886
00270,35400000,1970,1,1,0,20,28,0,-0.676021,-0.279051,9.665744,-0.004238,-0.009353,0.012710,0.544588,0.291214,0.127393,-2.222950,4.003012,63.514858
00271,45400000,1970,1,1,0,20,28,0,-0.679323,-0.276374,9.642655,-0.011528,-0.004275,0.018508,0.552788,0.293932,0.130640,-2.224903,3.999431,63.523712
00272,55400000,1970,1,1,0,20,28,0,-0.648540,-0.282004,9.661465,-0.017738,-0.004435,0.027289,0.541835,0.285569,0.124586,-2.230064,3.995955,63.538189
00273,65400000,1970,1,1,0,20,28,0,-0.582922,-0.303894,9.720382,-0.023270,-0.007444,0.026489,0.547281,0.282643,0.125027,-2.238420,3.990738,63.553455
00274,75400000,1970,1,1,0,20,28,0,-0.540893,-0.319995,9.776493,-0.024414,-0.013458,0.022651,0.549511,0.285903,0.135437,-2.247575,3.981996,63.568954
00275,85400000,1970,1,1,0,20,28,0,-0.520128,-0.321987,9.802990,-0.023782,-0.011855,0.016633,0.550184,0.288152,0.125293,-2.256612,3.974036,63.579895
00276,95400000,1970,1,1,0,20,28,0,-0.486688,-0.339044,9.802135,-0.024863,-0.003974,0.011681,0.552788,0.293932,0.130640,-2.266478,3.970474,63.586918
00277,105400000,1970,1,1,0,20,28,0,-0.449616,-0.365963,9.829694,-0.027578,0.000867,0.011089,0.558090,0.285427,0.131045,-2.277932,3.969669,63.591576
00278,115400000,1970,1,1,0,20,28,0,-0.419962,-0.393860,9.873774,-0.027659,0.001572,0.000628,0.546975,0.288626,0.132685,-2.289847,3.969029,63.594929
00279,125400000,1970,1,1,0,20,28,0,-0.418573,-0.411779,9.926960,-0.024836,-0.005777,-0.004137,0.552427,0.279986,0.130549,-2.300323,3.964066,63.591854
00280,135400000,1970,1,1,0,20,28,0,-0.469471,-0.390469,9.932575,-0.013727,-0.006615,-0.011344,0.547197,0.291280,0.130163,-2.304718,3.958457,63.589458
00281,145400000,1970,1,1,0,20,28,0,-0.498496,-0.402393,9.875587,-0.012139,-0.001751,-0.021396,0.550479,0.293596,0.122789,-2.308607,3.955397,63.575272
00282,155400000,1970,1,1,0,20,28,0,-0.521564,-0.372549,9.795415,-0.007094,-0.001673,-0.024919,0.552643,0.288353,0.130604,-2.309747,3.952296,63.558880
00283,165400000,1970,1,1,0,20,28,0,-0.561077,-0.376366,9.741717,-0.008398,0.005230,-0.028709,0.550028,0.294001,0.130411,-2.311792,3.953058,63.542931
00284,175400000,1970,1,1,0,20,28,0,-0.656298,-0.337339,9.742875,-0.015908,0.004100,-0.027166,0.539070,0.291351,0.126934,-2.318080,3.953204,63.525017
00285,185400000,1970,1,1,0,20,28,0,-0.683038,-0.352387,9.714362,-0.024694,0.011371,-0.021257,0.547492,0.296724,0.127659,-2.329178,3.957647,63.509209
00286,195400000,1970,1,1,0,20,28,0,-0.702597,-0.373814,9.765658,-0.024813,0.030680,-0.016300,0.550101,0.296790,0.130429,-2.340184,3.973257,63.495426
00287,205400000,1970,1,1,0,20,28,0,-0.704537,-0.439838,9.812275,-0.022439,0.037966,-0.014426,0.547347,0.291145,0.127622,-2.349767,3.993083,63.483250
00288,215400000,1970,1,1,0,20,28,0,-0.760677,-0.473315,9.814968,-0.025411,0.030855,-0.013859,0.541606,0.288628,0.129686,-2.361022,4.008846,63.473392
00289,225400000,1970,1,1,0,20,28,0,-0.760089,-0.444513,9.810987,-0.019991,0.022273,-0.019689,0.547269,0.294069,0.130181,-2.369392,4.019560,63.460251
00290,235400000,1970,1,1,0,20,28,0,-0.723003,-0.482117,9.750830,-0.009713,0.007743,-0.020802,0.547125,0.288491,0.130145,-2.371898,4.021930,63.445854
00291,245400000,1970,1,1,0,20,28,0,-0.778462,-0.489006,9.721470,-0.016092,0.009621,-0.022255,0.555252,0.288420,0.133374,-2.378123,4.025338,63.432953
00292,255400000,1970,1,1,0,20,28,0,-0.893306,-0.482731,9.704967,-0.016917,0.001025,-0.021505,0.547413,0.299648,0.130217,-2.384773,4.023844,63.422493
00293,265400000,1970,1,1,0,20,28,0,-0.936589,-0.467993,9.712217,-0.023456,-0.006981,-0.015104,0.550112,0.285363,0.125275,-2.394905,4.017919,63.409565
00294,275400000,1970,1,1,0,20,28,0,-0.915942,-0.496860,9.717007,-0.025497,-0.007998,-0.006286,0.553160,0.296451,0.125577,-2.405847,4.011626,63.408329
00295,285400000,1970,1,1,0,20,28,0,-0.929787,-0.504133,9.753661,-0.024775,0.008065,0.003807,0.544221,0.282981,0.129879,-2.416001,4.014771,63.408539
00296,295400000,1970,1,1,0,20,28,0,-0.912606,-0.515549,9.797084,-0.021874,0.012084,0.013947,0.560326,0.282973,0.138878,-2.424088,4.020469,63.418095
00297,305400000,1970,1,1,0,20,28,0,-0.851601,-0.528907,9.830562,-0.019566,0.012831,0.021599,0.547347,0.291145,0.127622,-2.430538,4.026780,63.435333
00298,315400000,1970,1,1,0,20,28,0,-0.778238,-0.527044,9.865279,-0.012585,0.013606,0.024827,0.547203,0.285567,0.127586,-2.432871,4.033616,63.448135
00299,325400000,1970,1,1,0,20,28,0,-0.730451,-0.500150,9.860834,-0.010195,0.011877,0.024226,0.552499,0.282775,0.130568,-2.433853,4.039451,63.462841
00300,335400000,1970,1,1,0,20,28,0,-0.677961,-0.523545,9.869780,-0.008020,0.003717,0.025243,0.552793,0.288219,0.128063,-2.433537,4.040642,63.480469
00301,345400000,1970,1,1,0,20,28,0,-0.687590,-0.502041,9.887130,0.002003,-0.006212,0.018879,0.536082,0.294479,0.131803,-2.427720,4.035990,63.492401
00302,355400000,1970,1,1,0,20,28,0,-0.669667,-0.479337,9.873267,0.007026,-0.015810,0.019069,0.544215,0.288694,0.132456,-2.419005,4.025845,63.498363
00303,365400000,1970,1,1,0,20,28,0,-0.682587,-0.456168,9.822544,0.011274,-0.016354,0.014648,0.547197,0.291280,0.130163,-2.408034,4.015283,63.506012
00304,375400000,1970,1,1,0,20,28,0,-0.637834,-0.423751,9.785247,0.011009,-0.007368,0.014798,0.547047,0.291415,0.132704,-2.397227,4.009864,63.513103
00305,385400000,1970,1,1,0,20,28,0,-0.587379,-0.394207,9.756720,0.010770,-0.000600,0.018887,0.549511,0.285903,0.135437,-2.386402,4.008417,63.522221
00306,395400000,1970,1,1,0,20,28,0,-0.598500,-0.378381,9.717594,0.004495,0.015313,0.019091,0.550028,0.294001,0.130411,-2.379187,4.016083,63.533936
00307,405400000,1970,1,1,0,20,28,0,-0.591885,-0.396341,9.718277,0.000651,0.018643,0.021203,0.552643,0.288353,0.130604,-2.374095,4.025700,63.543415
00308,415400000,1970,1,1,0,20,28,0,-0.587696,-0.378052,9.750107,-0.012824,0.015009,0.019570,0.544660,0.294003,0.127411,-2.376779,4.033199,63.554974
00309,425400000,1970,1,1,0,20,28,0,-0.606301,-0.371668,9.773464,-0.011912,0.015094,0.018018,0.560921,0.288147,0.131293,-2.379008,4.040708,63.561447
00310,435400000,1970,1,1,0,20,28,0,-0.620010,-0.399752,9.821839,-0.008145,0.007826,0.010356,0.541829,0.291283,0.127163,-2.379369,4.043874,63.569706
00311,445400000,1970,1,1,0,20,28,0,-0.645010,-0.402069,9.834591,-0.003496,-0.002537,0.002590,0.547341,0.296858,0.130199,-2.377366,4.040921,63.568161
00312,455400000,1970,1,1,0,20,28,0,-0.662527,-0.403696,9.827850,0.000487,-0.012868,-0.000904,0.543987,0.291753,0.137555,-2.373206,4.031971,63.563778
00313,465400000,1970,1,1,0,20,28,0,-0.730414,-0.401607,9.794308,0.004969,-0.012947,-0.005158,0.546975,0.288626,0.132685,-2.366649,4.022876,63.558414
00314,475400000,1970,1,1,0,20,28,0,-0.768913,-0.355001,9.777633,0.010765,-0.014636,0.000273,0.541823,0.296996,0.129740,-2.356549,4.012941,63.558258
00315,485400000,1970,1,1,0,20,28,0,-0.749591,-0.333627,9.704660,0.010830,-0.009125,0.006485,0.544210,0.294408,0.135033,-2.346174,4.006310,63.556892
00316,495400000,1970,1,1,0,20,28,0,-0.704888,-0.321451,9.675089,0.010475,0.003940,0.010824,0.538703,0.283119,0.129420,-2.335844,4.007260,63.559391
00317,505400000,1970,1,1,0,20,28,0,-0.632393,-0.327262,9.668708,0.000380,0.008782,0.012476,0.530720,0.288768,0.126227,-2.331237,4.011020,63.566372
00318,515400000,1970,1,1,0,20,28,0,-0.596614,-0.308099,9.670492,-0.007828,0.002709,0.007003,0.558240,0.285292,0.128504,-2.331545,4.011174,63.566242
00319,525400000,1970,1,1,0,20,28,0,-0.603304,-0.324516,9.665646,-0.019198,-0.000259,0.000164,0.547425,0.288221,0.125064,-2.338636,4.009473,63.569664
00320,535400000,1970,1,1,0,20,28,0,-0.646154,-0.372166,9.714932,-0.022408,-0.005432,-0.002850,0.541757,0.288493,0.127145,-2.347677,4.004735,63.567822
00321,545400000,1970,1,1,0,20,28,0,-0.710726,-0.424344,9.744101,-0.025127,-0.010257,-0.006774,0.539142,0.294141,0.126952,-2.358422,3.997144,63.562519
00322,555400000,1970,1,1,0,20,28,0,-0.745165,-0.439454,9.792190,-0.026634,-0.016161,-0.003736,0.553010,0.296586,0.128118,-2.369902,3.986236,63.556221
00323,565400000,1970,1,1,0,20,28,0,-0.740229,-0.437546,9.853271,-0.019867,-0.023073,-0.003060,0.549812,0.285633,0.130356,-2.377465,3.971392,63.552494
00324,575400000,1970,1,1,0,20,28,0,-0.727116,-0.434184,9.842987,-0.013453,-0.015851,0.004899,0.546608,0.280393,0.135171,-2.381047,3.960876,63.557091
00325,585400000,1970,1,1,0,20,28,0,-0.713634,-0.398898,9.806479,-0.005855,-0.010005,0.006126,0.552793,0.288219,0.128063,-2.380241,3.953736,63.563728
00326,595400000,1970,1,1,0,20,28,0,-0.650516,-0.391328,9.788718,-0.002793,-0.008821,0.006470,0.536010,0.291690,0.131785,-2.377665,3.947279,63.568447
00327,605400000,1970,1,1,0,20,28,0,-0.601561,-0.374265,9.759213,-0.008928,-0.005876,0.004308,0.555486,0.279647,0.125698,-2.378698,3.942458,63.566769
00328,615400000,1970,1,1,0,20,28,0,-0.598347,-0.396958,9.757940,-0.016349,0.002177,-0.000659,0.546830,0.283047,0.132649,-2.384186,3.942126,63.571281
00329,625400000,1970,1,1,0,20,28,0,-0.597861,-0.407907,9.740504,-0.011950,0.010588,-0.004242,0.547119,0.294204,0.132722,-2.387312,3.946523,63.570164
00330,635400000,1970,1,1,0,20,28,0,-0.642776,-0.420768,9.818683,-0.018178,0.002875,-0.006427,0.544738,0.291079,0.124852,-2.394081,3.946451,63.563332
00331,645400000,1970,1,1,0,20,28,0,-0.678535,-0.429118,9.817891,-0.011290,-0.008110,-0.014806,0.544732,0.296792,0.127429,-2.397215,3.939888,63.552883
00332,655400000,1970,1,1,0,20,28,0,-0.698240,-0.466151,9.823094,-0.009239,-0.009206,-0.015663,0.549740,0.282844,0.130338,-2.399208,3.932676,63.539646
00333,665400000,1970,1,1,0,20,28,0,-0.735300,-0.464330,9.825108,-0.002711,-0.009469,-0.009382,0.541907,0.288359,0.124604,-2.397208,3.925469,63.536987
00334,675400000,1970,1,1,0,20,28,0,-0.729568,-0.456961,9.829835,0.002011,-0.015222,-0.002096,0.555559,0.282437,0.125716,-2.392208,3.915142,63.534672
00335,685400000,1970,1,1,0,20,28,0,-0.725126,-0.408791,9.791574,0.007000,-0.022998,0.002750,0.547653,0.285162,0.119964,-2.384141,3.900479,63.540745
00336,695400000,1970,1,1,0,20,28,0,-0.637253,-0.385768,9.724870,0.000338,-0.023047,0.001070,0.553016,0.290873,0.125541,-2.379963,3.885751,63.542912
00337,705400000,1970,1,1,0,20,28,0,-0.562967,-0.405081,9.727395,-0.002507,-0.011327,0.002287,0.552715,0.291143,0.130622,-2.377385,3.877761,63.544228
00338,715400000,1970,1,1,0,20,28,0,-0.591294,-0.406124,9.743976,-0.012195,-0.015240,-0.000920,0.544582,0.296927,0.129970,-2.380481,3.867450,63.543579
00339,725400000,1970,1,1,0,20,28,0,-0.681079,-0.431051,9.770275,-0.020317,-0.017912,-0.006803,0.533479,0.288700,0.126456,-2.388455,3.855469,63.535492
00340,735400000,1970,1,1,0,20,28,0,-0.724262,-0.396528,9.798031,-0.016703,-0.013389,-0.002133,0.552721,0.285429,0.128045,-2.394182,3.846191,63.531120
00341,745400000,1970,1,1,0,20,28,0,-0.681007,-0.426393,9.824131,-0.008851,-0.004737,0.002342,0.541378,0.291687,0.134785,-2.395247,3.841974,63.534599
00342,755400000,1970,1,1,0,20,28,0,-0.650255,-0.444268,9.876291,-0.002168,0.004586,0.007189,0.544582,0.296927,0.129970,-2.392313,3.843208,63.535576
00343,765400000,1970,1,1,0,20,28,0,-0.673848,-0.504254,9.953048,0.030980,-0.023928,-0.002142,0.552944,0.288084,0.125523,-2.370708,3.827895,63.530411
00344,775400000,1970,1,1,0,20,28,0,-0.622677,-0.435591,9.685699,0.006049,-0.018024,-0.008788,0.544810,0.293868,0.124870,-2.363644,3.815804,63.526840
00345,785400000,1970,1,1,0,20,28,0,-0.604309,-0.362406,9.815761,0.029729,-0.015183,-0.002865,0.553316,0.290603,0.120460,-2.342795,3.805480,63.522469
00346,795400000,1970,1,1,0,20,28,0,-0.550711,-0.362515,9.681318,0.011160,-0.023683,-0.008929,0.533407,0.285910,0.126438,-2.332800,3.790150,63.518082
00347,805400000,1970,1,1,0,20,28,0,-0.574735,-0.331131,9.759181,0.012560,-0.030289,-0.004067,0.549884,0.288422,0.130374,-2.321806,3.771151,63.514359
00348,815400000,1970,1,1,0,20,28,0,-0.616409,-0.391294,9.782278,0.015232,-0.036874,-0.004991,0.552421,0.285699,0.133126,-2.309303,3.748360,63.512749
00349,825400000,1970,1,1,0,20,28,0,-0.622197,-0.397328,9.792477,0.012270,-0.022764,-0.008723,0.549884,0.288422,0.130374,-2.298659,3.733564,63.510315
00350,835400000,1970,1,1,0,20,28,0,-0.628355,-0.336256,9.717081,0.005252,-0.003355,-0.007548,0.544371,0.282846,0.127338,-2.292020,3.729905,63.506409
00351,845400000,1970,1,1,0,20,28,0,-0.607262,-0.286178,9.673645,-0.003326,0.006887,-0.001709,0.552649,0.282640,0.128027,-2.290093,3.732244,63.506763
00352,855400000,1970,1,1,0,20,28,0,-0.541933,-0.288077,9.681070,-0.008250,0.005533,0.003792,0.541667,0.302844,0.134858,-2.290776,3.733935,63.512173
00353,865400000,1970,1,1,0,20,28,0,-0.548929,-0.283968,9.711784,-0.025422,0.004106,0.000637,0.550262,0.285228,0.122734,-2.301420,3.734735,63.504913
00354,875400000,1970,1,1,0,20,28,0,-0.555615,-0.267237,9.656631,-0.020723,0.009491,0.004015,0.555697,0.293728,0.128329,-2.309243,3.738694,63.508793
00355,885400000,1970,1,1,0,20,28,0,-0.525725,-0.292691,9.712811,-0.022538,0.017557,-0.001404,0.550106,0.291076,0.127852,-2.318325,3.747141,63.506935
00356,895400000,1970,1,1,0,20,28,0,-0.576613,-0.288817,9.695188,-0.024001,-0.003833,-0.004701,0.555847,0.293593,0.125789,-2.328331,3.743268,63.503590
00357,905400000,1970,1,1,0,20,28,0,-0.599777,-0.294877,9.691907,-0.029619,-0.011674,-0.011578,0.552793,0.288219,0.128063,-2.341801,3.734744,63.496689
00358,915400000,1970,1,1,0,20,28,0,-0.604010,-0.286554,9.779419,-0.022637,-0.016192,-0.011610,0.547347,0.291145,0.127622,-2.351263,3.723632,63.491432
00359,925400000,1970,1,1,0,20,28,0,-0.589199,-0.391670,9.791757,-0.024886,-0.004683,-0.013351,0.552871,0.285295,0.125505,-2.362094,3.719064,63.482552
00360,935400000,1970,1,1,0,20,28,0,-0.638601,-0.388018,9.954988,-0.016772,-0.020051,-0.021929,0.555631,0.285226,0.125734,-2.368567,3.705498,63.472660
00361,945400000,1970,1,1,0,20,28,0,-0.620153,-0.408760,9.907132,-0.005420,-0.032268,-0.029463,0.544582,0.296927,0.129970,-2.368791,3.684754,63.459412
00362,955400000,1970,1,1,0,20,28,0,-0.596070,-0.479673,9.653193,-0.004646,-0.022439,-0.018288,0.555553,0.288150,0.128293,-2.368176,3.669902,63.445240
00363,965400000,1970,1,1,0,20,28,0,-0.655213,-0.342826,9.878681,-0.022073,-0.012527,-0.016065,0.547864,0.299243,0.122596,-2.377479,3.660775,63.438072
00364,975400000,1970,1,1,0,20,28,0,-0.687800,-0.527191,9.667082,-0.020543,-0.012887,0.001553,0.539298,0.288292,0.121834,-2.385257,3.651858,63.434986
00365,985400000,1970,1,1,0,20,28,0,-0.561894,-0.474575,9.823090,-0.003499,-0.019767,0.017184,0.547648,0.290875,0.122541,-2.382684,3.639379,63.443680
00366,995400000,1970,1,1,0,20,28,0,-0.591900,-0.549014,9.803872,-0.026451,-0.003336,0.013850,0.555330,0.285496,0.130815,-2.393415,3.636228,63.450756
00367,5400000,1970,1,1,0,20,29,0,-0.595771,-0.520654,10.022066,-0.008386,-0.005033,0.011824,0.552493,0.288488,0.133145,-2.393862,3.632058,63.460361
00368,15400000,1970,1,1,0,20,29,0,-0.651356,-0.751677,10.013394,-0.047260,-0.000207,0.010220,0.544738,0.291079,0.124852,-2.416656,3.630612,63.467041
00369,25400000,1970,1,1,0,20,29,0,-0.797321,-0.587209,10.150620,-0.020924,0.006950,0.030391,0.547497,0.291010,0.125082,-2.423640,3.633750,63.482407
00370,35400000,1970,1,1,0,20,29,0,-0.845605,-0.654318,9.981200,-0.000019,0.044445,0.034667,0.547209,0.279854,0.125009,-2.418545,3.658457,63.499886
00371,45400000,1970,1,1,0,20,29,0,-0.682203,-0.579724,9.931478,0.001030,0.049616,0.052263,0.539070,0.291351,0.126934,-2.412205,3.686553,63.531673
00372,55400000,1970,1,1,0,20,29,0,-0.563454,-0.613210,9.819798,-0.002798,0.041442,0.077447,0.547053,0.285702,0.130127,-2.407101,3.710572,63.571590
00373,65400000,1970,1,1,0,20,29,0,-0.630904,-0.592721,9.848608,-0.043932,0.030848,0.086485,0.539148,0.288427,0.124375,-2.425199,3.728749,63.620747
00374,75400000,1970,1,1,0,20,29,0,-0.730509,-0.549729,9.884574,-0.039203,0.022907,0.054947,0.547281,0.282643,0.125027,-2.441746,3.741627,63.648956
00375,85400000,1970,1,1,0,20,29,0,-0.697290,-0.532152,9.867996,0.004000,0.012200,0.063266,0.538919,0.291486,0.129474,-2.433203,3.748582,63.686165
00376,95400000,1970,1,1,0,20,29,0,-0.588284,-0.517556,9.811590,0.005120,0.006571,0.053008,0.547125,0.288491,0.130145,-2.424397,3.752060,63.711922
00377,105400000,1970,1,1,0,20,29,0,-0.513326,-0.139209,9.669268,-0.031196,-0.010926,0.066469,0.536238,0.288631,0.126686,-2.435863,3.745848,63.748798
00378,115400000,1970,1,1,0,20,29,0,-0.703572,-0.366301,9.706822,0.033395,-0.022246,0.061244,0.549962,0.285498,0.127816,-2.410504,3.733024,63.780376
00379,125400000,1970,1,1,0,20,29,0,-0.571202,-0.386563,9.911907,0.066707,-0.016919,0.028114,0.547497,0.291010,0.125082,-2.367309,3.722441,63.796986
00380,135400000,1970,1,1,0,20,29,0,-0.611927,-0.503786,10.015472,0.072804,-0.038824,0.020380,0.550184,0.288152,0.125293,-2.320882,3.699121,63.806740
00381,145400000,1970,1,1,0,20,29,0,-0.815700,-0.437441,10.011989,0.088079,-0.066828,0.012069,0.547347,0.291145,0.127622,-2.265975,3.659569,63.814171
00382,155400000,1970,1,1,0,20,29,0,-0.837101,-0.376752,9.884532,0.110811,-0.084748,0.020083,0.558318,0.282368,0.125946,-2.197736,3.609927,63.824608
00383,165400000,1970,1,1,0,20,29,0,-0.814593,-0.360083,9.791393,0.107394,-0.074214,0.032596,0.558390,0.285157,0.125964,-2.131031,3.566575,63.848228
00384,175400000,1970,1,1,0,20,29,0,-0.685468,-0.339625,9.836899,0.113353,-0.081513,0.036360,0.547726,0.287951,0.119982,-2.060783,3.519106,63.872787
00385,185400000,1970,1,1,0,20,29,0,-0.636668,-0.345647,9.774540,0.109714,-0.079415,0.028028,0.553388,0.293392,0.120478,-1.992940,3.472642,63.888721
00386,195400000,1970,1,1,0,20,29,0,-0.585789,-0.419143,9.901249,0.103266,-0.077755,0.015357,0.547876,0.287817,0.117442,-1.929249,3.426859,63.896118
00387,205400000,1970,1,1,0,20,29,0,-0.530198,-0.358235,9.881048,0.095265,-0.078946,0.011525,0.561155,0.279375,0.123616,-1.870284,3.380310,63.902588
00388,215400000,1970,1,1,0,20,29,0,-0.750978,-0.336641,9.890214,0.105254,-0.050933,0.045596,0.548242,0.296049,0.114956,-1.804484,3.350423,63.934914
00389,225400000,1970,1,1,0,20,29,0,-0.763210,-0.329565,9.974972,0.089873,-0.071545,0.056189,0.542207,0.288089,0.119523,-1.747148,3.308893,63.962811
00390,235400000,1970,1,1,0,20,29,0,-0.584455,-0.301768,9.857990,0.071260,-0.092752,0.066264,0.553100,0.282236,0.120405,-1.700150,3.255360,63.999023
00391,245400000,1970,1,1,0,20,29,0,-0.451566,-0.280260,9.825553,0.077025,-0.111611,0.061932,0.556003,0.287745,0.120671,-1.650010,3.190927,64.038177
00392,255400000,1970,1,1,0,20,29,0,-0.564423,-0.281568,9.866411,0.087009,-0.105945,0.054414,0.544822,0.282442,0.119716,-1.594437,3.129581,64.070740
00393,265400000,1970,1,1,0,20,29,0,-0.440218,-0.327648,9.992416,0.122425,-0.105651,0.041312,0.553466,0.290468,0.117919,-1.519021,3.068162,64.095367
00394,275400000,1970,1,1,0,20,29,0,-0.399313,-0.333050,10.003042,0.123563,-0.129127,0.034567,0.545117,0.287885,0.117212,-1.443174,2.993162,64.114586
00395,285400000,1970,1,1,0,20,29,0,-0.491244,-0.257175,9.945271,0.147731,-0.157617,0.029164,0.553773,0.284485,0.110261,-1.353653,2.901735,64.130112
00396,295400000,1970,1,1,0,20,29,0,-0.570153,-0.299276,9.889688,0.156128,-0.187395,0.031014,0.548248,0.290336,0.112379,-1.259289,2.793250,64.150726
00397,305400000,1970,1,1,0,20,29,0,-0.697545,-0.216440,9.953427,0.176568,-0.226073,0.021230,0.556526,0.290130,0.113067,-1.153511,2.662455,64.161644
00398,315400000,1970,1,1,0,20,29,0,-0.633189,-0.110141,9.867282,0.205893,-0.268206,0.004568,0.559291,0.284348,0.110720,-1.031385,2.507319,64.165390
00399,325400000,1970,1,1,0,20,29,0,-0.587415,-0.149550,9.798205,0.259963,-0.272733,0.020862,0.554217,0.289794,0.105216,-0.877909,2.349735,64.181831
00400,335400000,1970,1,1,0,20,29,0,-0.498935,-0.199739,9.886850,0.258217,-0.285016,0.002465,0.548627,0.287142,0.104739,-0.725906,2.184932,64.183289
00401,345400000,1970,1,1,0,20,29,0,-0.352482,-0.140267,9.869339,0.236345,-0.316701,-0.036620,0.554668,0.289389,0.097594,-0.587267,2.001716,64.162117
00402,355400000,1970,1,1,0,20,29,0,-0.295856,-0.070002,9.980980,0.221754,-0.379553,-0.071074,0.557205,0.286666,0.100346,-0.457578,1.782356,64.121674
00403,365400000,1970,1,1,0,20,29,0,-0.287187,0.064669,10.008539,0.194014,-0.441512,-0.085964,0.549305,0.283679,0.092017,-0.343871,1.527522,64.074936
00404,375400000,1970,1,1,0,20,29,0,-0.173475,0.159555,10.106734,0.198531,-0.497617,-0.094659,0.546468,0.286672,0.094347,-0.227476,1.240613,64.022598
00405,385400000,1970,1,1,0,20,29,0,-0.176089,0.163791,9.917076,0.184161,-0.460763,-0.112538,0.549822,0.291777,0.086991,-0.119267,0.974894,63.957359
00406,395400000,1970,1,1,0,20,29,0,-0.191248,0.147085,10.028543,0.204536,-0.418513,-0.084611,0.544376,0.294703,0.086550,0.001131,0.733530,63.906097
00407,405400000,1970,1,1,0,20,29,0,-0.099263,0.122318,10.137539,0.177544,-0.419450,-0.075286,0.547592,0.288517,0.076580,0.106324,0.491721,63.856930
00408,415400000,1970,1,1,0,20,29,0,-0.100112,0.126140,10.028214,0.158637,-0.443217,-0.064269,0.553182,0.291169,0.077058,0.200919,0.236355,63.818336
00409,425400000,1970,1,1,0,20,29,0,-0.070136,0.165410,10.045177,0.134262,-0.422238,-0.043422,0.547736,0.294095,0.076617,0.281741,-0.006978,63.791706
00410,435400000,1970,1,1,0,20,29,0,0.021362,0.121471,9.971385,0.104138,-0.392916,-0.034924,0.547658,0.297019,0.079176,0.345397,-0.233505,63.766552
00411,445400000,1970,1,1,0,20,29,0,0.087582,0.095275,9.972237,0.054918,-0.329972,-0.050867,0.567273,0.296268,0.075702,0.380984,-0.423894,63.730766
00412,455400000,1970,1,1,0,20,29,0,0.124020,0.092582,10.014504,0.055664,-0.286209,-0.034546,0.548265,0.290767,0.066436,0.417019,-0.589250,63.710945
00413,465400000,1970,1,1,0,20,29,0,0.210090,0.022646,9.949327,0.026855,-0.267720,-0.035915,0.545422,0.299473,0.071342,0.436615,-0.743999,63.687916
00414,475400000,1970,1,1,0,20,29,0,0.289481,0.395655,10.034910,-0.019814,-0.302469,0.010737,0.553927,0.296207,0.066932,0.429146,-0.918858,63.685368
00415,485400000,1970,1,1,0,20,29,0,0.384252,-0.157362,10.025612,-0.011595,-0.365701,0.044880,0.545728,0.293490,0.063684,0.426035,-1.130090,63.706814
00416,495400000,1970,1,1,0,20,29,0,0.461337,-0.082981,10.086629,-0.027889,-0.417565,0.012602,0.556626,0.281923,0.061989,0.413900,-1.370901,63.708420
00417,505400000,1970,1,1,0,20,29,0,0.301487,-0.119215,9.832718,-0.111306,-0.443404,-0.005151,0.554011,0.287570,0.061796,0.354217,-1.626442,63.710754
00418,515400000,1970,1,1,0,20,29,0,0.213839,0.045308,9.712225,-0.116681,-0.336555,-0.006330,0.559824,0.292876,0.059751,0.291478,-1.820768,63.708271
00419,525400000,1970,1,1,0,20,29,0,0.309747,0.121148,9.741508,-0.108374,-0.228701,0.036969,0.559830,0.287163,0.057174,0.232676,-1.953419,63.729401
00420,535400000,1970,1,1,0,20,29,0,0.366418,0.031463,9.845943,-0.106247,-0.169600,0.050927,0.546100,0.296009,0.058621,0.174768,-2.052212,63.762283
00421,545400000,1970,1,1,0,20,29,0,0.447449,-0.060907,9.810824,-0.100355,-0.156664,0.012446,0.557293,0.289886,0.054422,0.120984,-2.143514,63.762173
00422,555400000,1970,1,1,0,20,29,0,0.446080,-0.103548,9.823904,-0.130481,-0.163825,0.006058,0.551847,0.292813,0.053981,0.050072,-2.238905,63.766560
00423,565400000,1970,1,1,0,20,29,0,0.406913,-0.067980,9.718884,-0.142454,-0.136160,0.008340,0.545806,0.290566,0.061125,-0.027764,-2.318446,63.768322
00424,575400000,1970,1,1,0,20,29,0,0.497867,-0.114314,9.768627,-0.124665,-0.112089,0.011220,0.554606,0.292744,0.054210,-0.095484,-2.384187,63.771107
00425,585400000,1970,1,1,0,20,29,0,0.440509,-0.106233,9.843863,-0.118794,-0.135412,0.007585,0.551396,0.293217,0.061603,-0.159766,-2.463287,63.773579
00426,595400000,1970,1,1,0,20,29,0,0.424809,-0.066700,9.688039,-0.129645,-0.127231,0.002558,0.546112,0.284583,0.053467,-0.230149,-2.537708,63.771564
00427,605400000,1970,1,1,0,20,29,0,0.418402,-0.056120,9.709778,-0.115256,-0.093549,0.011425,0.554318,0.281587,0.054138,-0.292515,-2.592804,63.778950
00428,615400000,1970,1,1,0,20,29,0,0.413996,-0.074727,9.706233,-0.116338,-0.064769,0.010584,0.546178,0.293085,0.056062,-0.355476,-2.631403,63.790642
00429,625400000,1970,1,1,0,20,29,0,0.422700,-0.096551,9.639585,-0.119733,-0.050734,0.005200,0.551997,0.292678,0.051440,-0.420255,-2.661983,63.787884
00430,635400000,1970,1,1,0,20,29,0,0.449474,-0.154436,9.597858,-0.104380,-0.043999,0.011637,0.551841,0.298526,0.056558,-0.476407,-2.688670,63.791401
00431,645400000,1970,1,1,0,20,29,0,0.441467,-0.147109,9.587875,-0.111160,-0.050584,0.009680,0.559824,0.292876,0.059751,-0.536400,-2.719137,63.789570
00432,655400000,1970,1,1,0,20,29,0,0.430111,-0.153428,9.607153,-0.096668,-0.066123,-0.001402,0.557293,0.289886,0.054422,-0.587790,-2.758560,63.788334
00433,665400000,1970,1,1,0,20,29,0,0.470563,-0.177362,9.712091,-0.085038,-0.101707,-0.010684,0.546401,0.295739,0.053540,-0.632267,-2.818425,63.783352
00434,675400000,1970,1,1,0,20,29,0,0.460174,-0.192809,9.778779,-0.092440,-0.136976,-0.020073,0.557149,0.284308,0.054386,-0.680731,-2.898568,63.765301
00435,685400000,1970,1,1,0,20,29,0,0.502156,-0.169703,9.775657,-0.096976,-0.166065,-0.032796,0.543413,0.298867,0.058410,-0.731405,-2.995470,63.752174
00436,695400000,1970,1,1,0,20,29,0,0.519699,-0.141791,9.691157,-0.093729,-0.177678,-0.040845,0.546250,0.295874,0.056080,-0.779964,-3.099109,63.719505
00437,705400000,1970,1,1,0,20,29,0,0.493280,-0.167682,9.590165,-0.089641,-0.157137,-0.035959,0.549160,0.295671,0.053769,-0.826288,-3.190957,63.693188
00438,715400000,1970,1,1,0,20,29,0,0.542574,-0.158378,9.543709,-0.082683,-0.127742,-0.016376,0.546334,0.287237,0.050945,-0.869217,-3.265813,63.679485
00439,725400000,1970,1,1,0,20,29,0,0.582563,-0.207707,9.657017,-0.058060,-0.109604,-0.008523,0.546845,0.301048,0.048495,-0.898277,-3.330212,63.675285
00440,735400000,1970,1,1,0,20,29,0,0.680690,-0.241680,9.754643,-0.042860,-0.136255,-0.020059,0.551991,0.298391,0.054017,-0.918254,-3.409988,63.655609
00441,745400000,1970,1,1,0,20,29,0,0.630228,-0.132745,9.872268,-0.039433,-0.176497,-0.013329,0.551841,0.298526,0.056558,-0.936507,-3.512762,63.643948
00442,755400000,1970,1,1,0,20,29,0,0.618306,-0.195289,9.739735,-0.034797,-0.233245,0.019148,0.557666,0.292406,0.049359,-0.953286,-3.647740,63.651497
00443,765400000,1970,1,1,0,20,29,0,0.597336,-0.201063,9.647642,-0.017706,-0.200649,0.006851,0.560575,0.292202,0.047048,-0.959824,-3.764155,63.657925
00444,775400000,1970,1,1,0,20,29,0,0.529760,-0.077144,9.739084,-0.034777,-0.214789,0.020843,0.552292,0.298121,0.048936,-0.976699,-3.888533,63.673496
00445,785400000,1970,1,1,0,20,29,0,0.530530,-0.053828,9.652149,-0.041247,-0.211417,0.020937,0.552448,0.292273,0.043818,-0.997318,-4.010979,63.682350
00446,795400000,1970,1,1,0,20,29,0,0.690770,-0.080036,9.722977,-0.030421,-0.220296,0.042822,0.547080,0.292276,0.040819,-1.012661,-4.138280,63.707912
00447,805400000,1970,1,1,0,20,29,0,0.734191,-0.175133,9.656525,-0.026451,-0.197144,0.058408,0.560948,0.294721,0.041985,-1.026431,-4.252156,63.740417
00448,815400000,1970,1,1,0,20,29,0,0.749345,-0.264821,9.588536,-0.006852,-0.179901,0.065419,0.547146,0.300778,0.043414,-1.029323,-4.356076,63.779263
00449,825400000,1970,1,1,0,20,29,0,0.819464,-0.258620,9.665716,-0.006062,-0.167984,0.062489,0.554985,0.289550,0.046570,-1.031696,-4.453197,63.808060
00450,835400000,1970,1,1,0,20,29,0,0.788380,-0.293546,9.640029,-0.028202,-0.192504,0.064217,0.555513,0.286222,0.036390,-1.046914,-4.564342,63.847248
00451,845400000,1970,1,1,0,20,29,0,0.730461,-0.174338,9.555450,-0.021508,-0.208138,0.082365,0.549544,0.286764,0.043552,-1.059232,-4.684242,63.899158
00452,855400000,1970,1,1,0,20,29,0,0.759720,-0.197520,9.618795,-0.019071,-0.193917,0.081891,0.547452,0.294795,0.035756,-1.070221,-4.795990,63.947838
00453,865400000,1970,1,1,0,20,29,0,0.813083,-0.167877,9.672367,-0.009889,-0.193651,0.076107,0.552532,0.283636,0.038683,-1.075766,-4.907639,63.987801
00454,875400000,1970,1,1,0,20,29,0,0.824597,-0.199052,9.664486,-0.000110,-0.173992,0.056725,0.553048,0.291734,0.033656,-1.074802,-5.008234,64.024048
00455,885400000,1970,1,1,0,20,29,0,0.900788,-0.305808,9.718970,0.023220,-0.142013,0.025369,0.555663,0.286087,0.033849,-1.058917,-5.090847,64.037285
00456,895400000,1970,1,1,0,20,29,0,0.990867,-0.376586,9.788342,0.005204,-0.124690,-0.005021,0.550295,0.286089,0.030849,-1.051796,-5.163863,64.036644
00457,905400000,1970,1,1,0,20,29,0,1.014214,-0.347281,9.704270,0.010133,-0.121864,-0.017084,0.553048,0.291734,0.033656,-1.041214,-5.235386,64.027588
00458,915400000,1970,1,1,0,20,29,0,0.928402,-0.265718,9.669048,-0.000136,-0.119712,-0.013246,0.547458,0.289082,0.033179,-1.036707,-5.305635,64.018280
00459,925400000,1970,1,1,0,20,29,0,0.912381,-0.352257,9.651317,-0.010061,-0.142516,-0.017015,0.556108,0.291395,0.028804,-1.037699,-5.388989,64.007149
00460,935400000,1970,1,1,0,20,29,0,0.850830,-0.200490,9.609526,-0.014998,-0.137260,-0.035454,0.544921,0.291805,0.030427,-1.040499,-5.469524,63.986649
00461,945400000,1970,1,1,0,20,29,0,0.858138,-0.118420,9.663098,-0.018509,-0.137481,-0.032206,0.542012,0.292009,0.032738,-1.045463,-5.550151,63.965057
00462,955400000,1970,1,1,0,20,29,0,0.948772,-0.082415,9.719810,-0.014953,-0.130526,-0.031707,0.555663,0.286087,0.033849,-1.048387,-5.626791,63.943066
00463,965400000,1970,1,1,0,20,29,0,1.024371,-0.116724,9.829441,-0.009127,-0.137411,-0.039322,0.551107,0.299631,0.023318,-1.047517,-5.707450,63.923401
00464,975400000,1970,1,1,0,20,29,0,1.077518,-0.155276,9.822059,0.000105,-0.143021,-0.055013,0.550734,0.297111,0.028382,-1.040427,-5.791493,63.887218
00465,985400000,1970,1,1,0,20,29,0,1.009887,-0.187091,9.744601,0.021735,-0.135248,-0.061932,0.547764,0.283099,0.025520,-1.020490,-5.871144,63.848438
00466,995400000,1970,1,1,0,20,29,0,1.043861,-0.223086,9.795868,0.030313,-0.143440,-0.070786,0.545254,0.291573,0.025339,-0.995059,-5.955559,63.811104
00467,5400000,1970,1,1,0,20,30,0,1.047894,-0.185788,9.780285,0.019682,-0.169286,-0.091360,0.550996,0.294091,0.023275,-0.974447,-6.054972,63.757629
00468,15400000,1970,1,1,0,20,30,0,0.979712,-0.183090,9.682420,0.003363,-0.181837,-0.088804,0.542494,0.291642,0.025109,-0.963254,-6.161535,63.706276
00469,25400000,1970,1,1,0,20,30,0,0.926759,-0.133807,9.628448,-0.011503,-0.164260,-0.069640,0.542944,0.291237,0.017486,-0.961666,-6.257841,63.665268
00470,35400000,1970,1,1,0,20,30,0,0.968083,-0.228555,9.615430,-0.005281,-0.119084,-0.033683,0.548013,0.291505,0.025569,-0.958681,-6.327917,63.645355
00471,45400000,1970,1,1,0,20,30,0,1.030416,-0.243781,9.743228,-0.010471,-0.102603,-0.018833,0.554050,0.299467,0.021000,-0.959573,-6.388406,63.634674
00472,55400000,1970,1,1,0,20,30,0,1.047053,-0.197737,9.816106,-0.003847,-0.112449,-0.015534,0.548007,0.297219,0.028146,-0.956882,-6.454503,63.624092
00473,65400000,1970,1,1,0,20,30,0,1.122948,-0.283212,9.803940,0.013860,-0.106184,-0.018011,0.542866,0.294162,0.020045,-0.943870,-6.517034,63.611710
00474,75400000,1970,1,1,0,20,30,0,1.237622,-0.251506,9.815737,0.020361,-0.092842,-0.031203,0.556593,0.291029,0.021175,-0.926242,-6.572045,63.592209
00475,85400000,1970,1,1,0,20,30,0,1.201267,-0.282958,9.874198,0.043412,-0.079941,-0.040996,0.545999,0.296613,0.015211,-0.894726,-6.619741,63.570892
00476,95400000,1970,1,1,0,20,30,0,1.116563,-0.286786,9.840493,0.030852,-0.121409,-0.047525,0.553761,0.288308,0.020927,-0.869985,-6.691245,63.542179
00477,105400000,1970,1,1,0,20,30,0,1.031668,-0.297158,9.702763,0.016211,-0.152595,-0.064915,0.543239,0.296682,0.014981,-0.852449,-6.780753,63.508129
00478,115400000,1970,1,1,0,20,30,0,0.965887,-0.102276,9.747952,0.007726,-0.189019,-0.028628,0.551068,0.296881,0.023293,-0.842239,-6.890811,63.490593
00479,125400000,1970,1,1,0,20,30,0,0.959367,-0.174917,9.584949,0.022955,-0.182645,-0.023059,0.551446,0.293686,0.015652,-0.823648,-6.997168,63.477409
00480,135400000,1970,1,1,0,20,30,0,0.972997,-0.211989,9.629765,0.013207,-0.172018,-0.002174,0.548686,0.293755,0.015422,-0.812086,-7.097254,63.477600
00481,145400000,1970,1,1,0,20,30,0,1.020976,-0.053001,9.695398,0.022355,-0.168856,0.005499,0.546143,0.302193,0.015247,-0.795827,-7.195472,63.481594
00482,155400000,1970,1,1,0,20,30,0,1.131080,-0.071409,9.829517,0.027591,-0.178084,0.011047,0.548759,0.296545,0.015440,-0.776983,-7.298928,63.485661
00483,165400000,1970,1,1,0,20,30,0,1.222997,-0.082458,9.915395,0.019686,-0.212972,0.003620,0.549281,0.298930,0.007835,-0.762167,-7.422429,63.488098
00484,175400000,1970,1,1,0,20,30,0,1.254588,-0.114605,10.092524,0.028115,-0.264987,-0.017399,0.549059,0.296275,0.010358,-0.740988,-7.575889,63.478241
00485,185400000,1970,1,1,0,20,30,0,1.336082,-0.198108,10.027277,0.006858,-0.345793,-0.058079,0.546672,0.298864,0.005064,-0.728889,-7.775940,63.446236
00486,195400000,1970,1,1,0,20,30,0,1.344196,-0.219519,9.910084,-0.022039,-0.415321,-0.096958,0.546594,0.301788,0.007624,-0.730204,-8.016102,63.391289
00487,205400000,1970,1,1,0,20,30,0,1.289055,-0.038109,9.579373,-0.097158,-0.435446,-0.084318,0.541447,0.304446,0.002100,-0.775399,-8.267721,63.343136
00488,215400000,1970,1,1,0,20,30,0,1.326465,-0.008012,9.525655,-0.146213,-0.397850,-0.017464,0.544651,0.309687,-0.002716,-0.854145,-8.497304,63.332535
00489,225400000,1970,1,1,0,20,30,0,1.310315,-0.013156,9.560321,-0.128519,-0.352370,0.063621,0.541675,0.301386,-0.003000,-0.929733,-8.700125,63.368031
00490,235400000,1970,1,1,0,20,30,0,1.387151,-0.127367,9.705998,-0.117322,-0.321226,0.112348,0.546678,0.293149,0.002487,-1.003347,-8.884573,63.433887
00491,245400000,1970,1,1,0,20,30,0,1.546760,-0.148502,9.721749,-0.116771,-0.283159,0.143344,0.539138,0.304110,-0.005753,-1.079635,-9.046802,63.520390
00492,255400000,1970,1,1,0,20,30,0,1.566987,-0.179722,9.764977,-0.103238,-0.238127,0.132089,0.552642,0.298321,-0.002100,-1.147306,-9.183260,63.595757
00493,265400000,1970,1,1,0,20,30,0,1.614352,-0.232523,9.758287,-0.083291,-0.192785,0.122237,0.555474,0.301042,-0.001852,-1.202737,-9.293768,63.668362
00494,275400000,1970,1,1,0,20,30,0,1.666992,-0.270723,9.715584,-0.073241,-0.160409,0.104047,0.555558,0.292403,-0.006989,-1.250782,-9.385890,63.729527
00495,285400000,1970,1,1,0,20,30,0,1.722825,-0.322483,9.790694,-0.075176,-0.166313,0.077839,0.553093,0.297917,-0.009723,-1.297568,-9.481677,63.777939
00496,295400000,1970,1,1,0,20,30,0,1.686285,-0.334985,9.669375,-0.075657,-0.175068,0.044622,0.555185,0.289883,-0.001925,-1.341543,-9.582887,63.805225
00497,305400000,1970,1,1,0,20,30,0,1.633431,-0.350570,9.570714,-0.078956,-0.177165,0.034579,0.544519,0.292678,-0.007907,-1.386504,-9.685411,63.828892
00498,315400000,1970,1,1,0,20,30,0,1.622166,-0.383303,9.622337,-0.067978,-0.177187,0.018676,0.552570,0.295532,-0.002118,-1.423661,-9.788152,63.841248
00499,325400000,1970,1,1,0,20,30,0,1.673386,-0.379643,9.673723,-0.064142,-0.190077,-0.018554,0.541909,0.292612,-0.010678,-1.454991,-9.898808,63.832325
00500,335400000,1970,1,1,0,20,30,0,1.708936,-0.312962,9.693150,-0.050779,-0.209718,-0.040157,0.541981,0.295402,-0.010660,-1.476536,-10.021038,63.810837
00501,345400000,1970,1,1,0,20,30,0,1.887075,-0.389157,9.787516,-0.067274,-0.229539,-0.065859,0.550483,0.297851,-0.012494,-1.504928,-10.155011,63.774155
00502,355400000,1970,1,1,0,20,30,0,1.866001,-0.317545,9.756322,-0.066864,-0.240813,-0.072057,0.541903,0.298327,-0.008101,-1.532406,-10.295550,63.734764
00503,365400000,1970,1,1,0,20,30,0,1.785971,-0.217841,9.776203,-0.060101,-0.250060,-0.062580,0.539444,0.298126,-0.013412,-1.556941,-10.441260,63.699917
00504,375400000,1970,1,1,0,20,30,0,1.741012,-0.218235,9.595923,-0.048009,-0.255379,-0.066343,0.542582,0.294862,-0.020824,-1.574080,-10.590086,63.663052
00505,385400000,1970,1,1,0,20,30,0,1.588140,-0.172683,9.476030,-0.015083,-0.236695,-0.054766,0.539817,0.300646,-0.018477,-1.573463,-10.728034,63.634285
00506,395400000,1970,1,1,0,20,30,0,1.752387,-0.280099,9.430473,0.026743,-0.188500,-0.043974,0.542276,0.300847,-0.013165,-1.549845,-10.838205,63.609226
00507,405400000,1970,1,1,0,20,30,0,1.830944,-0.164348,9.386484,0.022307,-0.152154,-0.029215,0.550489,0.292136,-0.015071,-1.530238,-10.927315,63.592472
00508,415400000,1970,1,1,0,20,30,0,1.874779,-0.245894,9.487877,0.010887,-0.129210,-0.015415,0.539666,0.300781,-0.015935,-1.518608,-11.003076,63.586571
00509,425400000,1970,1,1,0,20,30,0,1.875537,-0.220277,9.628467,-0.001893,-0.134684,-0.006390,0.537429,0.303234,-0.023770,-1.515311,-11.081830,63.582642
00510,435400000,1970,1,1,0,20,30,0,1.931319,-0.311271,9.606052,-0.010097,-0.142793,-0.012574,0.539967,0.300511,-0.021018,-1.516045,-11.165321,63.574863
00511,445400000,1970,1,1,0,20,30,0,2.014815,-0.316297,9.721953,-0.008661,-0.180376,-0.010086,0.539967,0.300511,-0.021018,-1.516340,-11.270303,63.570103
00512,455400000,1970,1,1,0,20,30,0,1.974580,-0.266583,9.737634,-0.018137,-0.215632,-0.027265,0.537279,0.303369,-0.021229,-1.520196,-11.395742,63.555958
00513,465400000,1970,1,1,0,20,30,0,1.962302,-0.260737,9.683552,-0.023773,-0.250071,-0.037338,0.534964,0.308748,-0.026505,-1.526183,-11.541060,63.535732
00514,475400000,1970,1,1,0,20,30,0,1.972187,-0.328505,9.543989,0.010047,-0.266702,-0.040220,0.545486,0.300373,-0.020558,-1.512453,-11.695946,63.513191
00515,485400000,1970,1,1,0,20,30,0,1.906288,-0.303495,9.441606,0.081094,-0.251682,-0.039248,0.543405,0.296978,-0.033512,-1.458017,-11.842201,63.493645
00516,495400000,1970,1,1,0,20,30,0,1.989155,-0.167931,9.534614,0.103723,-0.222025,-0.016085,0.540718,0.299836,-0.033723,-1.393242,-11.971117,63.487736
00517,505400000,1970,1,1,0,20,30,0,2.124533,-0.307738,9.630491,0.150951,-0.209390,-0.009839,0.532294,0.294463,-0.034449,-1.302076,-12.092704,63.484226
00518,515400000,1970,1,1,0,20,30,0,2.142198,-0.198976,9.716144,0.182599,-0.224729,-0.019790,0.537886,0.297115,-0.033971,-1.191534,-12.223198,63.475033
00519,525400000,1970,1,1,0,20,30,0,2.177656,-0.308826,9.646512,0.155185,-0.242919,-0.024836,0.540796,0.296912,-0.036283,-1.096044,-12.364142,63.462833
00520,535400000,1970,1,1,0,20,30,0,2.276074,-0.277427,9.651667,0.070689,-0.279555,-0.068130,0.546460,0.302354,-0.035787,-1.043511,-12.526529,63.425682
00521,545400000,1970,1,1,0,20,30,0,2.112379,-0.223085,9.544426,0.030011,-0.318601,-0.100043,0.535348,0.299839,-0.036724,-1.010135,-12.711582,63.369637
00522,555400000,1970,1,1,0,20,30,0,1.968212,-0.084447,9.451467,-0.011702,-0.300072,-0.117199,0.532739,0.299773,-0.039494,-0.998193,-12.886180,63.302856
00523,565400000,1970,1,1,0,20,30,0,1.976746,-0.199898,9.398628,-0.035063,-0.261806,-0.129221,0.532961,0.302428,-0.042017,-0.997759,-13.038959,63.228565
00524,575400000,1970,1,1,0,20,30,0,2.106169,-0.142560,9.393891,-0.037360,-0.226699,-0.127143,0.535565,0.308208,-0.036669,-0.998650,-13.171605,63.154968
00525,585400000,1970,1,1,0,20,30,0,2.184647,-0.090228,9.439088,0.006721,-0.188247,-0.086950,0.527886,0.307875,-0.047523,-0.979437,-13.281815,63.104076
00526,595400000,1970,1,1,0,20,30,0,2.321104,-0.118497,9.492007,0.034482,-0.157810,-0.043358,0.533117,0.296578,-0.047136,-0.950066,-13.374146,63.078449
00527,605400000,1970,1,1,0,20,30,0,2.362754,-0.147306,9.505315,0.025446,-0.146469,0.000619,0.541541,0.301952,-0.046411,-0.931805,-13.459558,63.080357
00528,615400000,1970,1,1,0,20,30,0,2.276467,-0.174720,9.598783,0.003070,-0.143698,0.032183,0.527219,0.299910,-0.039954,-0.930696,-13.543086,63.100525
00529,625400000,1970,1,1,0,20,30,0,2.262610,-0.130269,9.657580,-0.010568,-0.148277,0.075537,0.538631,0.302155,-0.044099,-0.943449,-13.628833,63.145489
00530,635400000,1970,1,1,0,20,30,0,2.302725,-0.234061,9.569136,-0.009046,-0.141762,0.113847,0.544367,0.310387,-0.043585,-0.960725,-13.710468,63.213455
00531,645400000,1970,1,1,0,20,30,0,2.347566,-0.227812,9.639662,-0.018265,-0.129924,0.122522,0.541463,0.304876,-0.043851,-0.984569,-13.785216,63.285809
00532,655400000,1970,1,1,0,20,30,0,2.248919,-0.252503,9.538885,-0.061258,-0.113191,0.150919,0.525054,0.305154,-0.047770,-1.037113,-13.850046,63.375210
00533,665400000,1970,1,1,0,20,30,0,2.270615,-0.293465,9.460339,-0.080296,-0.090575,0.171741,0.536172,0.301954,-0.049411,-1.103562,-13.901596,63.475899
00534,675400000,1970,1,1,0,20,30,0,2.373840,-0.292785,9.607773,-0.042298,-0.079538,0.160957,0.541174,0.293717,-0.043924,-1.146776,-13.946855,63.571056
00535,685400000,1970,1,1,0,20,30,0,2.433739,-0.228416,9.687288,-0.010967,-0.106656,0.151088,0.530363,0.290933,-0.049943,-1.170810,-14.007709,63.661587
00536,695400000,1970,1,1,0,20,30,0,2.526141,-0.235044,9.778355,-0.003830,-0.151520,0.130988,0.535955,0.293585,-0.049466,-1.188130,-14.094468,63.740459
00537,705400000,1970,1,1,0,20,30,0,2.581788,-0.222677,9.731383,0.012982,-0.207258,0.123972,0.541619,0.299027,-0.048970,-1.195124,-14.213221,63.815769
00538,715400000,1970,1,1,0,20,30,0,2.517066,-0.141363,9.692431,-0.020799,-0.236658,0.135827,0.538865,0.293381,-0.051777,-1.223472,-14.348657,63.898163
00539,725400000,1970,1,1,0,20,30,0,2.492595,-0.081973,9.610631,-0.072212,-0.250152,0.167689,0.544757,0.295764,-0.056382,-1.286247,-14.491346,64.000099
00540,735400000,1970,1,1,0,20,30,0,2.665025,-0.185805,9.765738,-0.166444,-0.297195,0.205752,0.538715,0.293516,-0.049236,-1.409191,-14.660325,64.125465
00541,745400000,1970,1,1,0,20,30,0,2.832725,-0.288439,9.783055,-0.179024,-0.401376,0.244965,0.536778,0.295700,-0.062153,-1.546222,-14.888117,64.275833
00542,755400000,1970,1,1,0,20,30,0,2.783880,-0.269014,9.729289,-0.254917,-0.521446,0.281014,0.541998,0.295833,-0.056612,-1.733700,-15.183669,64.450287
00543,765400000,1970,1,1,0,20,30,0,2.857167,-0.360191,9.573285,-0.289276,-0.632416,0.286566,0.539544,0.289917,-0.064501,-1.943606,-15.542084,64.631424
00544,775400000,1970,1,1,0,20,30,0,2.796148,-0.341200,9.459503,-0.231000,-0.715941,0.285543,0.542009,0.284404,-0.061767,-2.122036,-15.947751,64.815758
00545,785400000,1970,1,1,0,20,30,0,2.738335,-0.244060,9.371715,-0.237642,-0.729614,0.286561,0.539700,0.284068,-0.069620,-2.306276,-16.360662,65.003174
00546,795400000,1970,1,1,0,20,30,0,2.597327,-0.150222,9.416238,-0.297041,-0.729903,0.244744,0.542977,0.292099,-0.074418,-2.519254,-16.774126,65.167290
00547,805400000,1970,1,1,0,20,30,0,2.518938,-0.163632,9.351221,-0.267225,-0.733027,0.196108,0.536946,0.278422,-0.072427,-2.708361,-17.190084,65.303452
00548,815400000,1970,1,1,0,20,30,0,2.561078,-0.190517,9.159015,-0.267151,-0.670709,0.135189,0.534559,0.281011,-0.077721,-2.887371,-17.571661,65.403961
00549,825400000,1970,1,1,0,20,30,0,2.585041,-0.378558,8.960207,-0.215197,-0.562541,0.101919,0.548208,0.280802,-0.074031,-3.030493,-17.892052,65.482040
00550,835400000,1970,1,1,0,20,30,0,2.753978,-0.479266,8.941253,-0.082895,-0.459095,0.079420,0.542917,0.277880,-0.079591,-3.093193,-18.153812,65.544441
00551,845400000,1970,1,1,0,20,30,0,2.864084,-0.538097,8.831958,-0.006504,-0.397728,0.075234,0.534932,0.283531,-0.082785,-3.111037,-18.380547,65.602608
00552,855400000,1970,1,1,0,20,30,0,3.028606,-0.603330,9.080247,-0.000918,-0.373563,0.047095,0.532322,0.283465,-0.085555,-3.120301,-18.594322,65.642075
00553,865400000,1970,1,1,0,20,30,0,3.152219,-0.506514,9.168473,0.004474,-0.356646,0.030551,0.519112,0.294698,-0.091713,-3.123264,-18.798927,65.671074
00554,875400000,1970,1,1,0,20,30,0,3.301395,-0.411285,9.284351,-0.030263,-0.320608,0.014449,0.527319,0.291702,-0.091042,-3.142704,-18.983416,65.687737
00555,885400000,1970,1,1,0,20,30,0,3.321656,-0.425430,9.372282,-0.083169,-0.291977,0.001871,0.532773,0.283060,-0.093179,-3.189757,-19.151915,65.696930
00556,895400000,1970,1,1,0,20,30,0,3.191524,-0.402610,9.223371,-0.119722,-0.263196,-0.000945,0.538515,0.285577,-0.095242,-3.256960,-19.304028,65.704895
00557,905400000,1970,1,1,0,20,30,0,3.056358,-0.384350,9.171695,-0.105377,-0.227862,-0.003408,0.533139,0.291294,-0.095665,-3.315115,-19.435993,65.710289
00558,915400000,1970,1,1,0,20,30,0,3.048332,-0.421263,9.086062,-0.093494,-0.192071,-0.030339,0.535533,0.282991,-0.092949,-3.360635,-19.548393,65.697510
00559,925400000,1970,1,1,0,20,30,0,3.094009,-0.464833,9.065996,-0.088499,-0.170378,-0.055174,0.543890,0.279860,-0.094820,-3.397988,-19.649225,65.669777
00560,935400000,1970,1,1,0,20,30,0,3.119043,-0.532645,9.090240,-0.059263,-0.160096,-0.110611,0.526875,0.286392,-0.085996,-3.407059,-19.746077,65.608414
00561,945400000,1970,1,1,0,20,30,0,3.225489,-0.591271,9.208698,-0.036886,-0.171196,-0.174999,0.530464,0.282724,-0.101032,-3.390074,-19.851454,65.507088
00562,955400000,1970,1,1,0,20,30,0,3.356757,-0.639522,9.167649,-0.021406,-0.189855,-0.208742,0.529941,0.280339,-0.093427,-3.357241,-19.968601,65.386520
00563,965400000,1970,1,1,0,20,30,0,3.541464,-0.728034,9.061593,0.005492,-0.190208,-0.207174,0.538737,0.288232,-0.097765,-3.309030,-20.085817,65.266777
00564,975400000,1970,1,1,0,20,30,0,3.617190,-0.707040,9.019826,0.091116,-0.165793,-0.159064,0.525082,0.294156,-0.098877,-3.221271,-20.187363,65.175117
00565,985400000,1970,1,1,0,20,30,0,3.527597,-0.637116,9.052908,0.170598,-0.105497,-0.045200,0.519641,0.291368,-0.101896,-3.111053,-20.250664,65.149933
00566,995400000,1970,1,1,0,20,30,0,3.529485,-0.786436,9.133973,0.245546,-0.040705,0.067978,0.525461,0.290961,-0.106519,-2.981002,-20.273413,65.191650
00567,5400000,1970,1,1,0,20,31,0,3.555779,-0.695773,9.408918,0.203699,-0.080810,0.091600,0.527992,0.293952,-0.101189,-2.880383,-20.318481,65.249329
00568,15400000,1970,1,1,0,20,31,0,3.436635,-0.529723,9.470706,0.100806,-0.221889,0.104020,0.533296,0.285445,-0.100784,-2.842924,-20.444006,65.318642
00569,25400000,1970,1,1,0,20,31,0,3.464184,-0.503098,9.400441,0.072447,-0.346275,0.095771,0.525238,0.288306,-0.103996,-2.821449,-20.640978,65.387245
00570,35400000,1970,1,1,0,20,31,0,3.462337,-0.467819,9.200997,0.095889,-0.378570,0.065312,0.530686,0.285379,-0.103555,-2.780509,-20.857315,65.437744
00571,45400000,1970,1,1,0,20,31,0,3.410233,-0.391312,9.311000,0.098727,-0.339666,0.027208,0.525467,0.285247,-0.109096,-2.729300,-21.052471,65.463875
00572,55400000,1970,1,1,0,20,31,0,3.529144,-0.408313,9.407509,0.055660,-0.344693,0.009050,0.530992,0.279395,-0.111214,-2.698846,-21.251013,65.478767
00573,65400000,1970,1,1,0,20,31,0,3.626186,-0.529178,9.334917,-0.009395,-0.362044,-0.010182,0.536662,0.279122,-0.113296,-2.701576,-21.460007,65.482742
00574,75400000,1970,1,1,0,20,31,0,3.591510,-0.547156,9.207930,-0.072378,-0.372622,-0.022079,0.526062,0.290422,-0.116683,-2.737859,-21.675373,65.479851
00575,85400000,1970,1,1,0,20,31,0,3.545871,-0.590132,8.996474,-0.099132,-0.361262,-0.021977,0.531954,0.292804,-0.121288,-2.789427,-21.884241,65.475945
00576,95400000,1970,1,1,0,20,31,0,3.496644,-0.548576,8.986426,-0.079027,-0.343211,-0.013478,0.529122,0.290083,-0.121536,-2.831300,-22.082541,65.477097
00577,105400000,1970,1,1,0,20,31,0,3.577644,-0.516824,9.102912,-0.069282,-0.353627,-0.025661,0.526368,0.284437,-0.124343,-2.864913,-22.287149,65.471306
00578,115400000,1970,1,1,0,20,31,0,3.616621,-0.387882,9.111300,-0.067720,-0.371925,-0.043146,0.518305,0.293013,-0.124977,-2.893747,-22.502731,65.455673
00579,125400000,1970,1,1,0,20,31,0,3.725328,-0.262793,9.250163,-0.084253,-0.396130,-0.027090,0.524270,0.298185,-0.129564,-2.936167,-22.731697,65.450150
00580,135400000,1970,1,1,0,20,31,0,3.882482,-0.195607,9.299836,-0.092051,-0.427007,-0.013601,0.523758,0.284371,-0.127114,-2.986740,-22.977940,65.454208
00581,145400000,1970,1,1,0,20,31,0,3.874430,-0.221007,9.233783,-0.110174,-0.431060,-0.042236,0.526668,0.284168,-0.129425,-3.040881,-23.227350,65.441750
00582,155400000,1970,1,1,0,20,31,0,3.773566,-0.217708,8.948877,-0.126844,-0.384676,-0.098466,0.526663,0.289882,-0.126848,-3.090128,-23.451973,65.392998
00583,165400000,1970,1,1,0,20,31,0,3.924653,-0.290699,9.021789,-0.103777,-0.340242,-0.116710,0.523987,0.281312,-0.132214,-3.120872,-23.651756,65.331017
00584,175400000,1970,1,1,0,20,31,0,4.080842,-0.394719,9.016053,-0.119883,-0.356683,-0.070358,0.521365,0.292674,-0.129830,-3.172559,-23.859533,65.299194
00585,185400000,1970,1,1,0,20,31,0,4.305749,-0.467474,9.069524,-0.150285,-0.385635,-0.025454,0.516591,0.297852,-0.140418,-3.253464,-24.082470,65.295738
00586,195400000,1970,1,1,0,20,31,0,4.462583,-0.528996,9.167715,-0.201130,-0.453705,0.014855,0.515924,0.289887,-0.132849,-3.375053,-24.343014,65.320267
00587,205400000,1970,1,1,0,20,31,0,4.451873,-0.452781,9.323945,-0.268462,-0.536287,0.051627,0.519206,0.292204,-0.140224,-3.546536,-24.649445,65.372353
00588,215400000,1970,1,1,0,20,31,0,4.276660,-0.355406,9.124022,-0.294867,-0.561800,0.099675,0.516218,0.295332,-0.135353,-3.747049,-24.968559,65.457047
00589,225400000,1970,1,1,0,20,31,0,4.183560,-0.302649,9.035509,-0.289780,-0.494198,0.125628,0.508239,0.295268,-0.141125,-3.951395,-25.247770,65.556236
00590,235400000,1970,1,1,0,20,31,0,4.156361,-0.460201,8.826954,-0.208702,-0.446534,0.120645,0.519206,0.292204,-0.140224,-4.107947,-25.499659,65.651230
00591,245400000,1970,1,1,0,20,31,0,4.175735,-0.639093,8.746365,-0.238227,-0.380960,0.118050,0.519880,0.294454,-0.150371,-4.280170,-25.713915,65.743172
00592,255400000,1970,1,1,0,20,31,0,4.288162,-0.712959,8.636548,-0.239059,-0.326759,0.132137,0.521900,0.283631,-0.142590,-4.456290,-25.896351,65.842331
00593,265400000,1970,1,1,0,20,31,0,4.276028,-0.753395,8.603658,-0.180193,-0.300788,0.158729,0.503098,0.292211,-0.149225,-4.606095,-26.062492,65.958328
00594,275400000,1970,1,1,0,20,31,0,4.264698,-0.813937,8.647396,-0.131040,-0.298031,0.169509,0.522267,0.291865,-0.145077,-4.731263,-26.226311,66.080429
00595,285400000,1970,1,1,0,20,31,0,4.307578,-0.781041,8.691977,-0.122554,-0.306556,0.169074,0.511239,0.280711,-0.151150,-4.852223,-26.394772,66.203842
00596,295400000,1970,1,1,0,20,31,0,4.326114,-0.771841,8.797691,-0.121030,-0.320005,0.141948,0.516681,0.283498,-0.148132,-4.965497,-26.572020,66.311699
00597,305400000,1970,1,1,0,20,31,0,4.348109,-0.718318,8.865320,-0.140521,-0.344275,0.116830,0.505864,0.286428,-0.151573,-5.083920,-26.764189,66.405167
00598,315400000,1970,1,1,0,20,31,0,4.421887,-0.814092,8.648726,-0.104782,-0.365701,0.097810,0.516975,0.288943,-0.150637,-5.177470,-26.969404,66.487778
00599,325400000,1970,1,1,0,20,31,0,4.396300,-0.920825,8.629439,-0.070327,-0.356930,0.085801,0.516681,0.283498,-0.148132,-5.248021,-27.170130,66.562813
00600,335400000,1970,1,1,0,20,31,0,4.428337,-0.911376,8.485003,-0.094169,-0.335385,0.087194,0.511762,0.283096,-0.158756,-5.332489,-27.358397,66.638184
00601,345400000,1970,1,1,0,20,31,0,4.404925,-1.042897,8.334705,-0.029654,-0.314902,0.081050,0.509225,0.285820,-0.161508,-5.377981,-27.535231,66.708763
00602,355400000,1970,1,1,0,20,31,0,4.315701,-1.100261,8.309086,-0.029384,-0.294990,0.020263,0.503771,0.294462,-0.159372,-5.404918,-27.703955,66.738953
00603,365400000,1970,1,1,0,20,31,0,4.320350,-1.049207,8.231439,-0.032541,-0.282348,-0.024204,0.511834,0.285886,-0.158737,-5.420073,-27.867840,66.739258
00604,375400000,1970,1,1,0,20,31,0,4.544128,-0.997048,8.409204,-0.025451,-0.275221,-0.068713,0.509441,0.294189,-0.161454,-5.417505,-28.030083,66.711197
00605,385400000,1970,1,1,0,20,31,0,4.643450,-0.908208,8.601552,0.024895,-0.297982,-0.054549,0.512357,0.288271,-0.166343,-5.390955,-28.204538,66.693176
00606,395400000,1970,1,1,0,20,31,0,4.601017,-0.847410,8.571163,-0.009718,-0.293346,-0.017045,0.512207,0.288406,-0.163802,-5.395536,-28.374321,66.699631
00607,405400000,1970,1,1,0,20,31,0,4.466385,-0.611399,8.974317,-0.133859,-0.253877,-0.018514,0.509597,0.288340,-0.166572,-5.469713,-28.521656,66.702721
00608,415400000,1970,1,1,0,20,31,0,4.553542,-0.661905,8.557833,-0.019255,-0.255809,0.002559,0.501017,0.288816,-0.162179,-5.484905,-28.668955,66.719704
00609,425400000,1970,1,1,0,20,31,0,4.572588,-0.877012,8.553143,0.016213,-0.242446,0.003200,0.506910,0.291199,-0.166784,-5.479627,-28.808580,66.736046
00610,435400000,1970,1,1,0,20,31,0,4.441802,-0.797381,8.666598,-0.049564,-0.257784,-0.031990,0.501540,0.291201,-0.169784,-5.501488,-28.958885,66.730614
00611,445400000,1970,1,1,0,20,31,0,4.433700,-0.737976,8.629484,-0.083880,-0.271908,-0.058700,0.493417,0.285558,-0.175592,-5.535007,-29.118723,66.708694
00612,455400000,1970,1,1,0,20,31,0,4.625219,-0.782453,8.550154,-0.085657,-0.232775,-0.084036,0.501763,0.293856,-0.172307,-5.560243,-29.257639,66.668045
00613,465400000,1970,1,1,0,20,31,0,4.923736,-0.817064,8.698697,-0.109527,-0.198174,-0.128213,0.504751,0.290728,-0.177178,-5.583859,-29.379301,66.596031
00614,475400000,1970,1,1,0,20,31,0,5.014971,-0.665223,8.720506,-0.125637,-0.227637,-0.128779,0.499381,0.290730,-0.180178,-5.617290,-29.517828,66.525833
00615,485400000,1970,1,1,0,20,31,0,5.051173,-0.758554,8.721183,-0.139424,-0.276467,-0.115557,0.499225,0.296580,-0.175060,-5.664317,-29.683510,66.467415
00616,495400000,1970,1,1,0,20,31,0,4.961256,-0.693004,8.595547,-0.121605,-0.328070,-0.071376,0.499075,0.296715,-0.172519,-5.717086,-29.876129,66.441147
00617,505400000,1970,1,1,0,20,31,0,4.842987,-0.684589,8.568133,-0.076494,-0.350319,-0.016107,0.504829,0.287803,-0.179737,-5.762911,-30.078276,66.452896
00618,515400000,1970,1,1,0,20,31,0,4.699934,-0.704749,8.386005,-0.013189,-0.350274,0.057066,0.501835,0.296646,-0.172289,-5.796854,-30.276184,66.513718
00619,525400000,1970,1,1,0,20,31,0,4.673151,-0.734188,8.380857,0.072489,-0.316547,0.088527,0.504751,0.290728,-0.177178,-5.791319,-30.453037,66.592514
00620,535400000,1970,1,1,0,20,31,0,4.779392,-0.740220,8.448630,0.137635,-0.294937,0.087007,0.501919,0.288007,-0.177426,-5.747442,-30.617676,66.669312
00621,545400000,1970,1,1,0,20,31,0,5.024529,-0.768316,8.558797,0.166656,-0.325618,0.088286,0.502291,0.290527,-0.182490,-5.688583,-30.799810,66.748909
00622,555400000,1970,1,1,0,20,31,0,5.353773,-0.796856,8.712685,0.136762,-0.390545,0.093472,0.499610,0.287671,-0.185279,-5.651066,-31.018694,66.836151
00623,565400000,1970,1,1,0,20,31,0,5.304895,-0.811232,8.662434,0.083565,-0.470576,0.085962,0.494234,0.293388,-0.185702,-5.644533,-31.283674,66.923798
00624,575400000,1970,1,1,0,20,31,0,5.230187,-0.769875,8.593897,0.052682,-0.550087,0.085672,0.494240,0.287673,-0.188279,-5.658867,-31.594004,67.016380
00625,585400000,1970,1,1,0,20,31,0,5.131431,-0.835225,8.359070,0.017463,-0.584129,0.080007,0.483573,0.290468,-0.194262,-5.693266,-31.924017,67.108292
00626,595400000,1970,1,1,0,20,31,0,5.110795,-0.989525,8.065460,0.008672,-0.563870,0.067571,0.497601,0.287065,-0.198214,-5.728287,-32.243168,67.190720
00627,605400000,1970,1,1,0,20,31,0,5.010334,-1.035896,7.900483,0.036984,-0.513950,0.025859,0.487295,0.303809,-0.204106,-5.730770,-32.536194,67.242592
00628,615400000,1970,1,1,0,20,31,0,5.009716,-1.035284,7.755693,0.019403,-0.430460,-0.017405,0.486856,0.292785,-0.201637,-5.724738,-32.784115,67.258591
00629,625400000,1970,1,1,0,20,31,0,5.194117,-1.044524,7.910808,0.009816,-0.363922,-0.059056,0.486934,0.289860,-0.204197,-5.706451,-32.996483,67.242523
00630,635400000,1970,1,1,0,20,31,0,5.332241,-0.943243,8.065001,-0.004594,-0.338081,-0.104244,0.492382,0.286933,-0.203756,-5.678541,-33.196667,67.193993
00631,645400000,1970,1,1,0,20,31,0,5.467778,-0.883183,8.344527,-0.015988,-0.352634,-0.118405,0.487157,0.292515,-0.206720,-5.652125,-33.405956,67.136665
00632,655400000,1970,1,1,0,20,31,0,5.595528,-0.861726,8.360809,-0.037781,-0.411903,-0.120439,0.473514,0.287009,-0.212986,-5.639322,-33.649094,67.081444
00633,665400000,1970,1,1,0,20,31,0,5.589114,-0.731240,8.229632,-0.055476,-0.475525,-0.097495,0.479628,0.292047,-0.220114,-5.647497,-33.927223,67.046181
00634,675400000,1970,1,1,0,20,31,0,5.430040,-0.661121,8.144052,-0.020284,-0.500883,-0.035794,0.484841,0.297893,-0.211995,-5.660104,-34.216362,67.055031
00635,685400000,1970,1,1,0,20,31,0,5.321758,-0.694872,7.894995,-0.022083,-0.453910,0.029195,0.480007,0.288852,-0.227756,-5.697358,-34.475006,67.105400
00636,695400000,1970,1,1,0,20,31,0,5.493342,-0.816478,7.834112,-0.020452,-0.352601,0.046982,0.490517,0.291907,-0.216654,-5.737074,-34.674854,67.162079
00637,705400000,1970,1,1,0,20,31,0,5.574729,-0.864710,7.998912,-0.031405,-0.293435,0.031656,0.479406,0.289392,-0.217591,-5.774934,-34.841839,67.203896
00638,715400000,1970,1,1,0,20,31,0,5.576036,-0.797671,8.047197,-0.037849,-0.297810,0.015971,0.474036,0.289394,-0.220592,-5.810649,-35.012188,67.235306
00639,725400000,1970,1,1,0,20,31,0,5.554070,-0.884440,7.940629,-0.048923,-0.305993,0.023636,0.474403,0.297629,-0.223078,-5.856312,-35.186745,67.272789
00640,735400000,1970,1,1,0,20,31,0,5.631239,-0.835784,7.937245,-0.035148,-0.297355,0.020176,0.476652,0.283746,-0.220398,-5.892562,-35.356544,67.307236
00641,745400000,1970,1,1,0,20,31,0,5.673615,-0.860223,7.967912,0.000639,-0.296960,0.012341,0.468883,0.297766,-0.223538,-5.905289,-35.526573,67.336967
00642,755400000,1970,1,1,0,20,31,0,5.762761,-0.880656,8.063376,0.015335,-0.310405,0.010027,0.479712,0.283408,-0.225251,-5.909341,-35.704403,67.365417
00643,765400000,1970,1,1,0,20,31,0,5.807810,-0.916350,8.083416,0.026276,-0.339501,0.003032,0.472028,0.288789,-0.233527,-5.905605,-35.899235,67.391930
00644,775400000,1970,1,1,0,20,31,0,5.723290,-0.911539,7.951034,0.052495,-0.342649,0.002347,0.474187,0.289260,-0.223133,-5.886786,-36.095879,67.417885
00645,785400000,1970,1,1,0,20,31,0,5.764666,-0.898351,7.866195,0.039700,-0.313770,0.010882,0.469250,0.306001,-0.226024,-5.877683,-36.275593,67.447571
00646,795400000,1970,1,1,0,20,31,0,5.798072,-0.985634,7.679309,0.008937,-0.259233,0.018068,0.474782,0.294434,-0.230720,-5.886981,-36.423782,67.477898
00647,805400000,1970,1,1,0,20,31,0,5.764439,-0.999413,7.703849,-0.055060,-0.194233,-0.016870,0.483061,0.294228,-0.230031,-5.915502,-36.536983,67.479584
00648,815400000,1970,1,1,0,20,31,0,5.804159,-0.998102,7.833545,-0.119822,-0.172031,-0.068991,0.466502,0.294641,-0.231409,-5.958165,-36.640629,67.442764
00649,825400000,1970,1,1,0,20,31,0,5.847431,-0.999481,7.817008,-0.140196,-0.184544,-0.135467,0.466646,0.300220,-0.231372,-5.984800,-36.755375,67.359459
00650,835400000,1970,1,1,0,20,31,0,5.887072,-0.852694,7.754119,-0.136165,-0.209838,-0.188320,0.471799,0.291848,-0.228427,-5.987499,-36.887726,67.240173
00651,845400000,1970,1,1,0,20,31,0,6.010369,-0.790037,7.852185,-0.068121,-0.238379,-0.186439,0.469412,0.294437,-0.233720,-5.952889,-37.036175,67.124512
00652,855400000,1970,1,1,0,20,31,0,6.159959,-0.948333,7.851158,-0.028937,-0.277817,-0.193324,0.460676,0.300762,-0.224208,-5.894136,-37.207443,67.006348
00653,865400000,1970,1,1,0,20,31,0,6.139885,-0.953488,7.814518,-0.017300,-0.323038,-0.240997,0.466875,0.297161,-0.236473,-5.809394,-37.407158,66.856384
00654,875400000,1970,1,1,0,20,31,0,6.142084,-0.784587,7.924786,-0.003931,-0.383597,-0.283168,0.458812,0.305736,-0.237107,-5.700219,-37.643623,66.680122
00655,885400000,1970,1,1,0,20,31,0,6.172844,-0.685558,7.824050,-0.001811,-0.442959,-0.253982,0.464410,0.302674,-0.239207,-5.604011,-37.912022,66.527634
00656,895400000,1970,1,1,0,20,31,0,6.117724,-0.750756,7.785391,0.004414,-0.473212,-0.202730,0.467175,0.296891,-0.241555,-5.527178,-38.194653,66.413605
00657,905400000,1970,1,1,0,20,31,0,6.161561,-0.821922,7.586249,0.031164,-0.454147,-0.191761,0.456503,0.305400,-0.244960,-5.438112,-38.465694,66.305443
00658,915400000,1970,1,1,0,20,31,0,6.134211,-0.690314,7.617913,0.076837,-0.436355,-0.229577,0.456725,0.308055,-0.247483,-5.303835,-38.728439,66.166946
00659,925400000,1970,1,1,0,20,31,0,6.127067,-0.709402,7.623838,0.108943,-0.441505,-0.259488,0.453965,0.308124,-0.247713,-5.136246,-38.995392,66.005531
00660,935400000,1970,1,1,0,20,31,0,6.064559,-0.584019,7.541263,0.106284,-0.469522,-0.243149,0.454416,0.307719,-0.255336,-4.977306,-39.277134,65.856377
00661,945400000,1970,1,1,0,20,31,0,6.190517,-0.710520,7.601954,0.095501,-0.499289,-0.223558,0.440394,0.305408,-0.253962,-4.833336,-39.574635,65.722130
00662,955400000,1970,1,1,0,20,31,0,6.212519,-0.604875,7.568416,0.105153,-0.526008,-0.222062,0.440394,0.305408,-0.253962,-4.684052,-39.887012,65.588982
00663,965400000,1970,1,1,0,20,31,0,6.273412,-0.662995,7.623750,0.115276,-0.558955,-0.192718,0.441218,0.307523,-0.266649,-4.542685,-40.216621,65.478058
00664,975400000,1970,1,1,0,20,31,0,6.445373,-0.657507,7.451139,0.066131,-0.575961,-0.169597,0.441146,0.304734,-0.266667,-4.439925,-40.554707,65.384140
00665,985400000,1970,1,1,0,20,31,0,6.498926,-0.679781,7.424955,0.022852,-0.592743,-0.152712,0.438163,0.302148,-0.264374,-4.369728,-40.901558,65.302811
00666,995400000,1970,1,1,0,20,31,0,6.621891,-0.597496,7.500937,-0.008988,-0.618849,-0.180361,0.424731,0.310726,-0.268009,-4.303947,-41.264400,65.201004
00667,5400000,1970,1,1,0,20,32,0,6.468466,-0.607151,7.314947,-0.072487,-0.629982,-0.176935,0.435926,0.304601,-0.272209,-4.275577,-41.633427,65.101059
00668,15400000,1970,1,1,0,20,32,0,6.573138,-0.593959,7.482081,-0.182774,-0.610138,-0.205063,0.419806,0.316038,-0.276055,-4.294395,-41.992317,64.978340
00669,25400000,1970,1,1,0,20,32,0,6.499862,-0.401645,7.173406,-0.180838,-0.599895,-0.223559,0.416818,0.319166,-0.271184,-4.301167,-42.346149,64.839661
00670,35400000,1970,1,1,0,20,32,0,6.409651,-0.341979,7.001290,-0.148865,-0.561536,-0.194347,0.424809,0.307801,-0.270568,-4.302308,-42.676846,64.720650
00671,45400000,1970,1,1,0,20,32,0,6.449927,-0.495015,6.982529,-0.132559,-0.515223,-0.162247,0.422722,0.310120,-0.280944,-4.308371,-42.979675,64.623947
00672,55400000,1970,1,1,0,20,32,0,6.622472,-0.533241,6.865275,-0.146636,-0.444688,-0.137200,0.422338,0.319029,-0.270725,-4.332476,-43.241135,64.542274
00673,65400000,1970,1,1,0,20,32,0,6.782859,-0.542320,6.801977,-0.118426,-0.350472,-0.101587,0.428386,0.315562,-0.280448,-4.355396,-43.447289,64.482315
00674,75400000,1970,1,1,0,20,32,0,6.890673,-0.645026,7.063961,-0.112208,-0.286577,-0.101723,0.412050,0.318629,-0.284349,-4.371848,-43.616920,64.418762
00675,85400000,1970,1,1,0,20,32,0,6.890942,-0.518348,7.023041,-0.148339,-0.267164,-0.097071,0.423233,0.323934,-0.283394,-4.410536,-43.775314,64.357353
00676,95400000,1970,1,1,0,20,32,0,6.854591,-0.284207,6.883666,-0.131590,-0.247952,-0.043426,0.414431,0.321755,-0.276478,-4.468158,-43.920376,64.337349
00677,105400000,1970,1,1,0,20,32,0,6.795014,-0.353709,7.072610,-0.128459,-0.244147,0.009281,0.420702,0.320943,-0.288724,-4.552979,-44.060921,64.359062
00678,115400000,1970,1,1,0,20,32,0,6.899997,-0.535118,7.106441,-0.126180,-0.296606,-0.024043,0.417497,0.315702,-0.283908,-4.620621,-44.232910,64.358231
00679,125400000,1970,1,1,0,20,32,0,6.900126,-0.589728,7.007749,-0.100581,-0.385018,-0.111714,0.417714,0.324072,-0.283853,-4.628750,-44.459465,64.293182
00680,135400000,1970,1,1,0,20,32,0,6.874257,-0.494973,7.046713,-0.133731,-0.482912,-0.174914,0.409212,0.321623,-0.282019,-4.624339,-44.744835,64.183311
00681,145400000,1970,1,1,0,20,32,0,6.998113,-0.485680,7.076117,-0.191436,-0.590340,-0.186701,0.418164,0.323667,-0.291477,-4.650446,-45.092125,64.070473
00682,155400000,1970,1,1,0,20,32,0,7.088134,-0.543920,7.007145,-0.179219,-0.711975,-0.225911,0.404432,0.332515,-0.290029,-4.651650,-45.510693,63.933407
00683,165400000,1970,1,1,0,20,32,0,6.981459,-0.379975,6.539611,-0.133645,-0.759868,-0.230235,0.399146,0.323878,-0.298167,-4.624891,-45.956818,63.794369
00684,175400000,1970,1,1,0,20,32,0,6.930793,-0.277458,6.618091,-0.062733,-0.733520,-0.175293,0.401756,0.323944,-0.295396,-4.587126,-46.385296,63.697834
00685,185400000,1970,1,1,0,20,32,0,7.067368,-0.376752,6.721313,-0.018125,-0.721277,-0.097427,0.382654,0.332795,-0.296949,-4.568990,-46.803211,63.664097
00686,195400000,1970,1,1,0,20,32,0,7.211030,-0.569387,6.572595,-0.018419,-0.704583,-0.084319,0.394071,0.329326,-0.303672,-4.557741,-47.210957,63.639408
00687,205400000,1970,1,1,0,20,32,0,7.309723,-0.617428,6.526621,-0.035064,-0.673188,-0.115534,0.394216,0.334905,-0.303635,-4.534708,-47.602200,63.586304
00688,215400000,1970,1,1,0,20,32,0,7.256056,-0.590116,6.512728,-0.067615,-0.648766,-0.135626,0.391450,0.340688,-0.301288,-4.515779,-47.980392,63.513710
00689,225400000,1970,1,1,0,20,32,0,7.298884,-0.499068,6.386615,-0.106691,-0.602841,-0.119063,0.386237,0.334842,-0.309407,-4.526757,-48.331585,63.451542
00690,235400000,1970,1,1,0,20,32,0,7.324187,-0.559044,6.477196,-0.099623,-0.584938,-0.108995,0.388774,0.332118,-0.306654,-4.538781,-48.672112,63.396751
00691,245400000,1970,1,1,0,20,32,0,7.500299,-0.512399,6.455072,-0.119747,-0.600416,-0.106214,0.377963,0.329333,-0.312673,-4.564588,-49.021366,63.345245
00692,255400000,1970,1,1,0,20,32,0,7.607637,-0.484279,6.492546,-0.085077,-0.643180,-0.092539,0.378035,0.332123,-0.312655,-4.581521,-49.394466,63.308514
00693,265400000,1970,1,1,0,20,32,0,7.691885,-0.405195,6.307641,-0.047233,-0.706470,-0.061824,0.370279,0.334714,-0.320949,-4.600508,-49.802242,63.303135
00694,275400000,1970,1,1,0,20,32,0,7.738081,-0.502104,6.358468,-0.011809,-0.748798,-0.016440,0.364681,0.337777,-0.318849,-4.632606,-50.232147,63.341316
00695,285400000,1970,1,1,0,20,32,0,7.669107,-0.597149,6.305965,-0.031082,-0.792620,0.007450,0.370435,0.328865,-0.326068,-4.695631,-50.685940,63.404934
00696,295400000,1970,1,1,0,20,32,0,7.575370,-0.551971,5.929245,-0.079035,-0.772469,0.016619,0.375654,0.328997,-0.320526,-4.792989,-51.127728,63.477348
00697,305400000,1970,1,1,0,20,32,0,7.640603,-0.346978,5.664087,-0.029193,-0.656561,-0.001500,0.370657,0.331520,-0.328591,-4.843422,-51.504147,63.525658
00698,315400000,1970,1,1,0,20,32,0,7.585823,-0.480906,5.906062,0.049400,-0.559799,-0.004425,0.354170,0.334722,-0.329950,-4.841472,-51.825462,63.564281
00699,325400000,1970,1,1,0,20,32,0,7.718540,-0.555536,5.812272,0.012902,-0.502777,-0.044480,0.365432,0.337102,-0.331555,-4.827952,-52.116192,63.561371
00700,335400000,1970,1,1,0,20,32,0,7.762285,-0.461047,5.871923,0.023956,-0.470820,-0.080418,0.359762,0.337375,-0.329473,-4.779398,-52.390369,63.522331
00701,345400000,1970,1,1,0,20,32,0,7.774172,-0.528762,5.913130,0.021345,-0.486392,-0.087466,0.354405,0.325948,-0.337628,-4.727410,-52.673721,63.477192
00702,355400000,1970,1,1,0,20,32,0,7.690294,-0.419549,6.037615,0.023152,-0.517328,-0.078993,0.357231,0.334384,-0.334803,-4.682004,-52.974350,63.441982
00703,365400000,1970,1,1,0,20,32,0,7.650872,-0.390888,5.975273,0.035319,-0.533456,-0.036220,0.349035,0.325951,-0.340629,-4.662637,-53.282188,63.447948
00704,375400000,1970,1,1,0,20,32,0,7.605698,-0.349010,5.966841,0.077110,-0.558071,-0.005179,0.351717,0.328807,-0.337840,-4.644692,-53.602623,63.485668
00705,385400000,1970,1,1,0,20,32,0,7.612442,-0.304271,5.847921,0.128422,-0.616148,0.027828,0.352456,0.339561,-0.345390,-4.627009,-53.954674,63.559856
00706,395400000,1970,1,1,0,20,32,0,7.830710,-0.394111,5.709787,0.165814,-0.669942,0.042227,0.346720,0.331329,-0.345904,-4.603337,-54.336849,63.652611
00707,405400000,1970,1,1,0,20,32,0,8.029678,-0.483249,5.631460,0.191429,-0.708563,0.015752,0.341717,0.339566,-0.351391,-4.546963,-54.742290,63.722969
00708,415400000,1970,1,1,0,20,32,0,7.994577,-0.589551,5.629174,0.178933,-0.723955,-0.017388,0.344183,0.334053,-0.348657,-4.471951,-55.158115,63.761230
00709,425400000,1970,1,1,0,20,32,0,7.920149,-0.634823,5.389553,0.111824,-0.658983,-0.048018,0.339047,0.325282,-0.359335,-4.405665,-55.538132,63.763416
00710,435400000,1970,1,1,0,20,32,0,7.600787,-0.880611,5.743636,0.021701,-0.585645,-0.097352,0.344339,0.328204,-0.353775,-4.344368,-55.878460,63.709217
00711,445400000,1970,1,1,0,20,32,0,8.055791,-0.377928,5.261715,-0.121927,-0.522348,-0.097794,0.331057,0.336647,-0.359951,-4.360169,-56.182632,63.648804
00712,455400000,1970,1,1,0,20,32,0,8.216141,-0.253336,5.295319,-0.043297,-0.493913,-0.090347,0.322705,0.334063,-0.360658,-4.334866,-56.470192,63.593243
00713,465400000,1970,1,1,0,20,32,0,7.987511,-0.418667,5.425560,0.009305,-0.489917,-0.112639,0.322855,0.333929,-0.363200,-4.258940,-56.756409,63.513412
00714,475400000,1970,1,1,0,20,32,0,7.820062,-0.473309,5.419590,-0.022898,-0.499058,-0.092118,0.325020,0.328685,-0.355383,-4.218856,-57.046982,63.454624
00715,485400000,1970,1,1,0,20,32,0,8.014874,-0.425887,5.392687,-0.040218,-0.456726,-0.056679,0.314876,0.333865,-0.368971,-4.216649,-57.311836,63.429302
00716,495400000,1970,1,1,0,20,32,0,8.131297,-0.435814,5.233044,-0.005060,-0.394035,-0.028207,0.322711,0.328349,-0.363236,-4.215420,-57.539665,63.429134
00717,505400000,1970,1,1,0,20,32,0,8.146301,-0.422765,5.250360,-0.032719,-0.369951,-0.005278,0.323228,0.336449,-0.368264,-4.249214,-57.752769,63.451672
00718,515400000,1970,1,1,0,20,32,0,8.161090,-0.412201,5.209501,-0.101418,-0.399108,0.014627,0.325843,0.330800,-0.368070,-4.343005,-57.981613,63.498486
00719,525400000,1970,1,1,0,20,32,0,8.178349,-0.421610,5.152946,-0.183993,-0.452120,0.013412,0.312189,0.336723,-0.369182,-4.487898,-58.240799,63.549698
00720,535400000,1970,1,1,0,20,32,0,8.253341,-0.484346,5.166712,-0.312553,-0.497158,-0.000902,0.317858,0.336451,-0.371264,-4.698302,-58.526260,63.591049
00721,545400000,1970,1,1,0,20,32,0,8.298705,-0.410621,5.205283,-0.348761,-0.545761,-0.010282,0.306669,0.336861,-0.369641,-4.926702,-58.839813,63.629154
00722,555400000,1970,1,1,0,20,32,0,8.254631,-0.494728,5.199608,-0.271753,-0.602821,0.003791,0.301300,0.336864,-0.372642,-5.131510,-59.185173,63.691010
00723,565400000,1970,1,1,0,20,32,0,8.195047,-0.551936,5.071385,-0.221214,-0.627517,0.012381,0.309946,0.344892,-0.374439,-5.320567,-59.544075,63.768021
00724,575400000,1970,1,1,0,20,32,0,8.336585,-0.379688,4.970206,-0.169388,-0.606459,0.059521,0.301744,0.342173,-0.377688,-5.527085,-59.888252,63.899315
00725,585400000,1970,1,1,0,20,32,0,8.564804,-0.354900,5.026616,-0.083418,-0.616734,0.109645,0.301372,0.339653,-0.372624,-5.738727,-60.235241,64.092972
00726,595400000,1970,1,1,0,20,32,0,8.602946,-0.496229,4.853857,-0.073419,-0.666464,0.154480,0.299429,0.347552,-0.382963,-5.999806,-60.607513,64.349380
00727,605400000,1970,1,1,0,20,32,0,8.628166,-0.452226,4.900887,-0.124787,-0.707884,0.195728,0.296603,0.339116,-0.385789,-6.343940,-61.000195,64.666176
00728,615400000,1970,1,1,0,20,32,0,8.657213,-0.681617,4.790422,-0.102323,-0.738023,0.197607,0.293615,0.342245,-0.380918,-6.689616,-61.408955,64.998375
00729,625400000,1970,1,1,0,20,32,0,8.384423,-0.728877,4.646032,-0.115318,-0.701553,0.169549,0.290861,0.336599,-0.383725,-7.017890,-61.797962,65.300858
00730,635400000,1970,1,1,0,20,32,0,8.313706,-0.660420,4.635379,-0.121770,-0.669431,0.124327,0.293771,0.336395,-0.386036,-7.305444,-62.171143,65.552086
00731,645400000,1970,1,1,0,20,32,0,8.367966,-0.687316,4.507215,-0.070827,-0.612949,0.060321,0.290855,0.342313,-0.381147,-7.492803,-62.516434,65.722359
00732,655400000,1970,1,1,0,20,32,0,8.560254,-0.777924,4.355199,-0.108266,-0.490952,-0.006661,0.288107,0.330953,-0.386532,-7.614099,-62.797279,65.793419
00733,665400000,1970,1,1,0,20,32,0,8.781125,-0.615953,4.413560,-0.073063,-0.397615,-0.056530,0.282732,0.336670,-0.386955,-7.647405,-63.028893,65.788422
00734,675400000,1970,1,1,0,20,32,0,8.863888,-0.599405,4.442522,-0.049010,-0.379821,-0.052916,0.285564,0.339391,-0.386707,-7.668456,-63.250099,65.784966
00735,685400000,1970,1,1,0,20,32,0,8.764762,-0.592716,4.463932,-0.051526,-0.380905,-0.025803,0.271843,0.336810,-0.390415,-7.722083,-63.469860,65.816315
00736,695400000,1970,1,1,0,20,32,0,8.720450,-0.701749,4.237312,-0.040067,-0.336215,-0.019300,0.285564,0.339391,-0.386707,-7.770262,-63.663715,65.848938
00737,705400000,1970,1,1,0,20,32,0,8.889800,-0.704091,4.125685,-0.004931,-0.237610,-0.045697,0.274374,0.339801,-0.385085,-7.752820,-63.803631,65.830765
00738,715400000,1970,1,1,0,20,32,0,8.953029,-0.651495,4.296364,0.020931,-0.201816,-0.070643,0.283032,0.336401,-0.392037,-7.685770,-63.925190,65.773743
00739,725400000,1970,1,1,0,20,32,0,8.787356,-0.779966,4.082274,0.028433,-0.189168,-0.084587,0.280706,0.353208,-0.392158,-7.595602,-64.040520,65.696091
00740,735400000,1970,1,1,0,20,32,0,8.796371,-0.704897,4.109087,0.011266,-0.162183,-0.125858,0.277357,0.342387,-0.387378,-7.462044,-64.143616,65.558945
00741,745400000,1970,1,1,0,20,32,0,8.765253,-0.606528,4.142989,-0.013388,-0.172955,-0.165384,0.269594,0.350693,-0.393095,-7.296659,-64.255547,65.371178
00742,755400000,1970,1,1,0,20,32,0,8.806074,-0.548224,4.118106,-0.038440,-0.188345,-0.180564,0.268927,0.342728,-0.385526,-7.128447,-64.377068,65.164429
00743,765400000,1970,1,1,0,20,32,0,8.769252,-0.538838,4.137387,-0.074369,-0.218207,-0.183704,0.269600,0.344979,-0.395672,-6.979645,-64.515579,64.956642
00744,775400000,1970,1,1,0,20,32,0,8.908606,-0.495000,4.159068,-0.108141,-0.260753,-0.184386,0.264303,0.347771,-0.398654,-6.853630,-64.678093,64.753021
00745,785400000,1970,1,1,0,20,32,0,9.127425,-0.394468,4.223283,-0.103530,-0.316307,-0.155332,0.269378,0.342324,-0.393149,-6.765937,-64.870102,64.594925
00746,795400000,1970,1,1,0,20,32,0,9.174248,-0.475954,4.148006,-0.112625,-0.372897,-0.126276,0.263780,0.345386,-0.391049,-6.725214,-65.092270,64.483185
00747,805400000,1970,1,1,0,20,32,0,9.174720,-0.553418,4.125920,-0.127243,-0.424160,-0.119010,0.256246,0.350632,-0.401866,-6.707937,-65.343117,64.388168
00748,815400000,1970,1,1,0,20,32,0,9.056368,-0.550749,4.091423,-0.177449,-0.479536,-0.149851,0.264225,0.350696,-0.396095,-6.687808,-65.627510,64.258675
00749,825400000,1970,1,1,0,20,32,0,8.942389,-0.459220,4.212947,-0.196196,-0.565316,-0.186123,0.258483,0.348178,-0.394031,-6.643113,-65.963074,64.090767
00750,835400000,1970,1,1,0,20,32,0,8.926066,-0.531735,4.221515,-0.199228,-0.659343,-0.212011,0.250281,0.345460,-0.397280,-6.577507,-66.353790,63.898605
00751,845400000,1970,1,1,0,20,32,0,8.990708,-0.378514,4.140416,-0.195828,-0.707821,-0.182599,0.250420,0.356754,-0.394666,-6.551744,-66.770119,63.752640
00752,855400000,1970,1,1,0,20,32,0,9.084963,-0.360233,3.946708,-0.215701,-0.728952,-0.141356,0.253408,0.353626,-0.399536,-6.593276,-67.195831,63.667587
00753,865400000,1970,1,1,0,20,32,0,9.285874,-0.401575,3.683414,-0.223086,-0.746568,-0.110642,0.234312,0.356762,-0.403667,-6.683404,-67.629524,63.631157
00754,875400000,1970,1,1,0,20,32,0,9.351356,-0.393313,3.592792,-0.221737,-0.758741,-0.092157,0.245056,0.351042,-0.400244,-6.801776,-68.068977,63.625984
00755,885400000,1970,1,1,0,20,32,0,9.397047,-0.405140,3.595921,-0.254991,-0.757433,-0.067970,0.234384,0.359551,-0.403649,-6.976245,-68.505920,63.660934
00756,895400000,1970,1,1,0,20,32,0,9.224361,-0.380938,3.681561,-0.268588,-0.757921,-0.040585,0.231407,0.351251,-0.403933,-7.203270,-68.941208,63.743587
00757,905400000,1970,1,1,0,20,32,0,9.081932,-0.354330,3.665154,-0.262734,-0.746728,-0.009398,0.226327,0.362413,-0.406861,-7.478097,-69.367691,63.880970
00758,915400000,1970,1,1,0,20,32,0,9.004897,-0.332483,3.606649,-0.226203,-0.722302,0.039836,0.222972,0.357306,-0.399503,-7.810938,-69.776360,64.101906
00759,925400000,1970,1,1,0,20,32,0,8.900256,-0.462991,3.545805,-0.224512,-0.698349,0.075789,0.226471,0.367992,-0.406824,-8.205191,-70.168060,64.388779
00760,935400000,1970,1,1,0,20,32,0,8.900634,-0.469288,3.449871,-0.243689,-0.667973,0.079515,0.215137,0.362822,-0.405238,-8.622648,-70.541443,64.687950
00761,945400000,1970,1,1,0,20,32,0,8.958190,-0.507639,3.261041,-0.265407,-0.645817,0.047538,0.214915,0.360167,-0.402715,-9.008517,-70.904465,64.939796
00762,955400000,1970,1,1,0,20,32,0,9.166934,-0.526229,3.140154,-0.297633,-0.636051,0.014864,0.223561,0.368196,-0.404513,-9.368126,-71.264359,65.143921
00763,965400000,1970,1,1,0,20,32,0,9.354475,-0.529139,3.036125,-0.352388,-0.645290,-0.012227,0.215065,0.360033,-0.405256,-9.726892,-71.631561,65.313545
00764,975400000,1970,1,1,0,20,32,0,9.625065,-0.395520,2.813597,-0.357105,-0.623653,-0.024981,0.204314,0.371467,-0.406102,-10.070228,-71.987556,65.463867
00765,985400000,1970,1,1,0,20,32,0,10.018212,-0.370898,2.663785,-0.312962,-0.546431,0.060507,0.207002,0.368608,-0.405891,-10.523770,-72.290916,65.756020
00766,995400000,1970,1,1,0,20,32,0,10.105917,-0.339548,2.550602,-0.235122,-0.543333,0.175680,0.195590,0.366363,-0.401745,-11.150430,-72.579300,66.276154
00767,5400000,1970,1,1,0,20,33,0,10.031361,-0.431223,2.596453,-0.153178,-0.599156,0.276089,0.196191,0.365824,-0.411910,-11.952702,-72.885445,67.028564
00768,15400000,1970,1,1,0,20,33,0,9.881004,-0.364316,2.737786,-0.084147,-0.714597,0.341340,0.204092,0.368812,-0.403579,-12.912484,-73.244774,67.985680
00769,25400000,1970,1,1,0,20,33,0,9.703042,-0.479676,2.800387,-0.073715,-0.808448,0.353748,0.193209,0.363237,-0.409616,-13.975202,-73.649620,69.054405
00770,35400000,1970,1,1,0,20,33,0,9.528131,-0.408398,2.868721,-0.117539,-0.797962,0.330900,0.201705,0.371401,-0.408873,-15.067020,-74.046295,70.125160
00771,45400000,1970,1,1,0,20,33,0,9.460209,-0.439532,2.822900,-0.115339,-0.724863,0.309226,0.193804,0.368412,-0.417203,-16.127317,-74.400269,71.162292
00772,55400000,1970,1,1,0,20,33,0,9.402081,-0.615339,2.689330,-0.127259,-0.625342,0.293431,0.199234,0.382628,-0.409030,-17.149252,-74.696999,72.151093
00773,65400000,1970,1,1,0,20,33,0,9.306863,-0.782779,2.372784,-0.130992,-0.557493,0.277986,0.196486,0.371268,-0.414414,-18.136051,-74.954712,73.099617
00774,75400000,1970,1,1,0,20,33,0,9.327408,-0.884077,2.114178,-0.112673,-0.492898,0.254398,0.188284,0.368550,-0.417663,-19.051464,-75.177444,73.984474
00775,85400000,1970,1,1,0,20,33,0,9.381314,-0.940991,2.043556,-0.057124,-0.441921,0.208609,0.193503,0.368682,-0.412121,-19.829124,-75.378036,74.758888
00776,95400000,1970,1,1,0,20,33,0,9.549842,-0.947733,1.836421,-0.050837,-0.380956,0.181011,0.188429,0.374129,-0.417626,-20.519358,-75.548668,75.445953
00777,105400000,1970,1,1,0,20,33,0,9.855784,-0.896979,1.799430,-0.027817,-0.356869,0.173996,0.193954,0.368277,-0.419744,-21.178288,-75.705849,76.113808
00778,115400000,1970,1,1,0,20,33,0,9.944130,-0.871194,1.996003,0.062838,-0.423208,0.204900,0.179710,0.363311,-0.415847,-21.921181,-75.889885,76.921410
00779,125400000,1970,1,1,0,20,33,0,9.930439,-0.937441,2.139306,0.116582,-0.498839,0.272634,0.179782,0.366101,-0.415829,-22.865427,-76.096191,77.967590
00780,135400000,1970,1,1,0,20,33,0,9.816691,-0.901183,2.254636,0.133895,-0.553673,0.313092,0.177023,0.366170,-0.416058,-23.968554,-76.317574,79.186508
00781,145400000,1970,1,1,0,20,33,0,9.603035,-0.953736,2.363582,0.126387,-0.585378,0.323371,0.168887,0.371956,-0.416711,-25.168070,-76.547218,80.498947
00782,155400000,1970,1,1,0,20,33,0,9.315297,-1.102673,2.261149,0.117054,-0.542928,0.281084,0.182770,0.362973,-0.420699,-26.277605,-76.759125,81.712219
00783,165400000,1970,1,1,0,20,33,0,9.071294,-1.216292,2.084388,0.049462,-0.475016,0.250139,0.180389,0.359847,-0.428571,-27.318037,-76.939056,82.813934
00784,175400000,1970,1,1,0,20,33,0,8.955938,-1.209279,2.100659,-0.023920,-0.436279,0.183320,0.185524,0.368619,-0.417892,-28.236979,-77.112854,83.747116
00785,185400000,1970,1,1,0,20,33,0,8.963409,-1.173872,2.116186,-0.089253,-0.459331,0.101081,0.177407,0.357261,-0.426277,-29.064484,-77.317665,84.547089
00786,195400000,1970,1,1,0,20,33,0,9.126658,-1.235089,1.937184,-0.159744,-0.472015,0.029623,0.169266,0.368761,-0.424352,-29.815060,-77.546371,85.226585
00787,205400000,1970,1,1,0,20,33,0,9.232840,-1.190990,1.872622,-0.192815,-0.450832,-0.016283,0.168971,0.363316,-0.421848,-30.478138,-77.776024,85.796219
00788,215400000,1970,1,1,0,20,33,0,9.308501,-1.213787,1.789471,-0.216218,-0.444898,-0.022607,0.166578,0.371620,-0.424564,-31.155344,-78.003151,86.366211
00789,225400000,1970,1,1,0,20,33,0,9.307851,-1.293207,1.593305,-0.237224,-0.423798,-0.051364,0.166428,0.371755,-0.422023,-31.770929,-78.227196,86.860374
00790,235400000,1970,1,1,0,20,33,0,9.219876,-1.263661,1.488208,-0.232634,-0.397431,-0.072935,0.160986,0.368967,-0.425041,-32.314617,-78.443947,87.283501
00791,245400000,1970,1,1,0,20,33,0,9.217649,-1.304446,1.382586,-0.209994,-0.390659,-0.087566,0.163440,0.374883,-0.417152,-32.818005,-78.661186,87.678444
00792,255400000,1970,1,1,0,20,33,0,9.210806,-1.277930,1.434470,-0.189007,-0.407543,-0.142919,0.161125,0.380261,-0.422427,-33.218651,-78.903145,87.980461
00793,265400000,1970,1,1,0,20,33,0,9.223748,-1.168789,1.593263,-0.187986,-0.476418,-0.172455,0.161203,0.377337,-0.424987,-33.674896,-79.186813,88.339561
00794,275400000,1970,1,1,0,20,33,0,9.386981,-1.236088,1.468692,-0.217791,-0.607754,-0.194182,0.161059,0.371757,-0.425023,-34.342865,-79.539314,88.896324
00795,285400000,1970,1,1,0,20,33,0,9.453728,-1.058501,1.449018,-0.230878,-0.666945,-0.222921,0.141590,0.372373,-0.424090,-35.094452,-79.927803,89.529785
00796,295400000,1970,1,1,0,20,33,0,9.587290,-1.025102,1.441287,-0.261951,-0.682550,-0.231556,0.152773,0.377678,-0.423135,-35.926746,-80.324722,90.226326
00797,305400000,1970,1,1,0,20,33,0,9.718288,-1.011812,1.382688,-0.282067,-0.679464,-0.240270,0.144650,0.372035,-0.428942,-36.804951,-80.721344,90.956848
