// General information: 
//  MT Manager version: 2019.0.1 
//  XDA version: 2019.0.1 build 2740 rev 84096 built on 2019-01-30
// Device information: 
//  DeviceId: 077002EC
//  ProductCode: MTi-G-700-2A5G4
//  Firmware Version: 1.4.1
//  Hardware Version: 2.0.0
// Device settings: 
//  Filter Profile: GeneralMag(3.17)
//  Option Flags: Orientation Smoother Disabled, AHS Disabled, ICC Disabled
//  GNSS Platform: Portable
// Coordinate system: ENU
PacketCounter,UTC_Nano,UTC_Year,UTC_Month,UTC_Day,UTC_Hour,UTC_Minute,UTC_Second,UTC_Valid,Acc_X,Acc_Y,Acc_Z,Gyr_X,Gyr_Y,Gyr_Z,Mag_X,Mag_Y,Mag_Z,Roll,Pitch,Yaw
00001,153900000,1970,1,1,0,0,35,0,0.302788,-0.154561,9.801311,-0.039610,0.004289,0.007376,-0.080883,0.620999,0.115642,-4.950195,-0.592576,-6.035001
00002,163900000,1970,1,1,0,0,35,0,0.327328,-0.178260,9.806580,-0.022671,0.021360,0.012410,-0.091710,0.610047,0.109672,-4.957721,-0.581580,-6.028821
00003,173900000,1970,1,1,0,0,35,0,0.366992,-0.322119,9.733485,-0.026002,0.017499,-0.005229,-0.081031,0.621132,0.118139,-4.967058,-0.573521,-6.038923
00004,183900000,1970,1,1,0,0,35,0,0.307289,-0.200910,9.736444,-0.025869,0.029413,0.010834,-0.086373,0.618395,0.115173,-4.976385,-0.558040,-6.032991
00005,193900000,1970,1,1,0,0,35,0,0.371698,-0.240237,9.844394,0.004915,0.025202,0.019731,-0.085936,0.623609,0.110213,-4.968130,-0.544437,-6.025146
00006,203900000,1970,1,1,0,0,35,0,0.364744,-0.271796,9.768644,0.007459,0.028855,0.008341,-0.086232,0.623874,0.115208,-4.958350,-0.529338,-6.023182
00007,213900000,1970,1,1,0,0,35,0,0.311953,-0.131309,9.786186,0.012337,0.024568,0.014423,-0.083303,0.626413,0.112954,-4.945796,-0.516395,-6.017580
00008,223900000,1970,1,1,0,0,35,0,0.316414,-0.229819,9.802397,-0.029047,0.020030,0.046687,-0.067040,0.620397,0.111773,-4.957125,-0.504477,-5.991607
00009,233900000,1970,1,1,0,0,35,0,0.224681,-0.107364,9.757319,-0.009158,0.019267,0.024857,-0.080375,0.628952,0.110699,-4.956927,-0.494249,-5.970447
00010,243900000,1970,1,1,0,0,35,0,0.284119,-0.171255,9.775157,0.008714,0.028060,0.020787,-0.075322,0.626343,0.116128,-4.946461,-0.479032,-5.960084
00011,253900000,1970,1,1,0,0,35,0,0.259269,-0.215219,9.980740,-0.003975,-0.003705,0.017541,-0.072831,0.623669,0.118834,-4.943264,-0.482159,-5.947484
00012,263900000,1970,1,1,0,0,35,0,0.206257,-0.128150,9.967949,0.018812,-0.028484,0.033187,-0.070116,0.617990,0.116526,-4.927092,-0.498672,-5.924043
00013,273900000,1970,1,1,0,0,35,0,0.225049,-0.408436,9.884512,0.005708,-0.031898,0.025613,-0.072613,0.626276,0.116354,-4.918380,-0.517533,-5.904291
00014,283900000,1970,1,1,0,0,35,0,0.125291,-0.230015,9.839408,0.028146,-0.035743,-0.009718,-0.080736,0.620867,0.113144,-4.896639,-0.540295,-5.905847
00015,293900000,1970,1,1,0,0,35,0,0.219099,-0.270400,9.706965,0.027048,-0.043371,0.006063,-0.080883,0.620999,0.115642,-4.875619,-0.566537,-5.902713
00016,303900000,1970,1,1,0,0,35,0,0.288371,-0.353529,9.545435,0.010055,-0.022286,0.001626,-0.077737,0.626145,0.110907,-4.864309,-0.580967,-5.902511
00017,313900000,1970,1,1,0,0,35,0,0.303789,-0.263324,9.596423,0.024480,0.000473,-0.027017,-0.080369,0.623341,0.108166,-4.844538,-0.583845,-5.917312
00018,323900000,1970,1,1,0,0,35,0,0.324946,-0.274010,9.640877,0.030737,0.006963,-0.032811,-0.078244,0.618193,0.115849,-4.821151,-0.583262,-5.937216
00019,333900000,1970,1,1,0,0,35,0,0.230892,-0.257183,9.810521,0.029960,-0.003818,-0.036884,-0.072524,0.612181,0.108771,-4.798183,-0.589055,-5.957802
00020,343900000,1970,1,1,0,0,35,0,0.106259,-0.259419,9.915064,0.024169,-0.046668,-0.031508,-0.086155,0.621002,0.112693,-4.778577,-0.619107,-5.970582
00021,353900000,1970,1,1,0,0,35,0,0.029448,-0.281510,9.912483,0.019102,-0.086150,-0.034640,-0.078244,0.618193,0.115849,-4.761878,-0.671680,-5.990167
00022,363900000,1970,1,1,0,0,35,0,0.135284,-0.344300,9.892338,0.034533,-0.105813,-0.046630,-0.078103,0.623671,0.115885,-4.736241,-0.736141,-6.010873
00023,373900000,1970,1,1,0,0,35,0,0.157567,-0.436473,9.977346,0.000738,-0.108178,-0.025490,-0.086161,0.626613,0.115226,-4.730103,-0.800956,-6.019076
00024,383900000,1970,1,1,0,0,35,0,0.315492,-0.395183,9.983519,0.005347,-0.133273,-0.049310,-0.072235,0.617527,0.106308,-4.721139,-0.881122,-6.043841
00025,393900000,1970,1,1,0,0,35,0,0.348119,-0.195760,10.077203,0.022955,-0.154800,-0.043836,-0.080523,0.629085,0.113197,-4.702102,-0.973481,-6.057248
00026,403900000,1970,1,1,0,0,35,0,0.572647,-0.158492,10.000993,0.013672,-0.209120,-0.017123,-0.077737,0.626145,0.110907,-4.688671,-1.095510,-6.057185
00027,413900000,1970,1,1,0,0,35,0,0.628271,-0.116292,9.737851,0.020999,-0.203610,0.003013,-0.083298,0.620802,0.110420,-4.671268,-1.213488,-6.044660
00028,423900000,1970,1,1,0,0,35,0,0.679162,-0.097210,9.642376,0.008724,-0.169150,0.006949,-0.077801,0.617795,0.108355,-4.660932,-1.311537,-6.035006
00029,433900000,1970,1,1,0,0,35,0,0.651653,-0.067856,9.481093,0.012887,-0.120405,-0.007723,-0.078026,0.620799,0.113369,-4.647973,-1.382494,-6.033021
00030,443900000,1970,1,1,0,0,35,0,0.626780,0.043643,9.445853,0.019773,-0.051310,-0.033662,-0.080446,0.626213,0.110681,-4.630627,-1.415201,-6.049204
00031,453900000,1970,1,1,0,0,35,0,0.605562,0.127876,9.613216,0.014043,0.005822,-0.037449,-0.097141,0.621404,0.114289,-4.616425,-1.415437,-6.071083
00032,463900000,1970,1,1,0,0,35,0,0.554836,0.184491,9.773787,-0.022702,0.023136,-0.008378,-0.078315,0.615453,0.115831,-4.623677,-1.404253,-6.085822
00033,473900000,1970,1,1,0,0,35,0,0.584936,0.116960,9.779592,-0.035175,0.021339,0.003626,-0.077955,0.623539,0.113387,-4.638207,-1.393792,-6.082647
00034,483900000,1970,1,1,0,0,35,0,0.556609,0.095550,9.845011,-0.042579,0.039783,0.000003,-0.077731,0.620534,0.108373,-4.656902,-1.372969,-6.082299
00035,493900000,1970,1,1,0,0,35,0,0.457809,0.010364,9.853174,-0.042918,0.041880,0.003952,-0.075458,0.615253,0.113559,-4.675844,-1.350753,-6.080359
00036,503900000,1970,1,1,0,0,35,0,0.488656,-0.058422,9.902238,-0.042652,0.031069,-0.004299,-0.086297,0.615523,0.112657,-4.694515,-1.335110,-6.082180
00037,513900000,1970,1,1,0,0,35,0,0.525036,-0.102880,9.865881,-0.051284,-0.000367,0.014534,-0.069814,0.612114,0.108996,-4.718420,-1.336414,-6.077661
00038,523900000,1970,1,1,0,0,35,0,0.394055,-0.090852,9.871505,-0.026280,0.017741,0.010821,-0.075529,0.612514,0.113541,-4.727917,-1.327732,-6.067118
00039,533900000,1970,1,1,0,0,35,0,0.336712,-0.169677,9.885347,-0.001169,0.012137,-0.003198,-0.072754,0.620797,0.116318,-4.722840,-1.322834,-6.068316
00040,543900000,1970,1,1,0,0,35,0,0.295386,-0.205396,9.842796,-0.009047,0.010110,0.007880,-0.077949,0.617927,0.110853,-4.722414,-1.318609,-6.061237
00041,553900000,1970,1,1,0,0,35,0,0.356898,-0.277263,9.872150,-0.014909,0.010833,0.015691,-0.077955,0.623539,0.113387,-4.725450,-1.313534,-6.053022
00042,563900000,1970,1,1,0,0,35,0,0.358270,-0.263251,9.844141,-0.015499,-0.001688,0.033668,-0.080228,0.628820,0.108201,-4.729069,-1.314768,-6.033400
00043,573900000,1970,1,1,0,0,35,0,0.401193,-0.388137,9.764585,-0.017163,-0.001274,0.004514,-0.080812,0.623739,0.115659,-4.733259,-1.317128,-6.031258
00044,583900000,1970,1,1,0,0,35,0,0.399519,-0.312739,9.775698,0.010820,-0.005631,-0.010752,-0.080446,0.626213,0.110681,-4.721228,-1.322688,-6.038086
00045,593900000,1970,1,1,0,0,35,0,0.476051,-0.314578,9.812920,0.024199,-0.014913,0.003258,-0.078244,0.618193,0.115849,-4.701732,-1.332900,-6.035789
00046,603900000,1970,1,1,0,0,35,0,0.468495,-0.464998,9.705033,0.018477,-0.020021,0.009983,-0.086013,0.626481,0.112728,-4.685606,-1.345725,-6.028756
00047,613900000,1970,1,1,0,0,35,0,0.444216,-0.358282,9.684956,-0.006659,-0.009330,-0.017532,-0.083805,0.612849,0.115362,-4.683506,-1.353670,-6.041431
00048,623900000,1970,1,1,0,0,35,0,0.397055,-0.253908,9.730206,0.006991,0.005260,-0.023657,-0.086078,0.618130,0.110177,-4.673489,-1.353588,-6.057386
00049,633900000,1970,1,1,0,0,35,0,0.470249,-0.201192,9.759019,0.011756,-0.001589,-0.018050,-0.078244,0.618193,0.115849,-4.660812,-1.357145,-6.070163
00050,643900000,1970,1,1,0,0,35,0,0.545318,-0.157072,9.750957,0.006030,-0.014633,-0.002195,-0.080588,0.620734,0.110646,-4.651628,-1.367510,-6.068904
00051,653900000,1970,1,1,0,0,35,0,0.527409,-0.103247,9.735015,0.005041,-0.017801,0.012525,-0.085936,0.623609,0.110213,-4.643235,-1.378956,-6.060583
00052,663900000,1970,1,1,0,0,35,0,0.491182,-0.107290,9.766825,0.013677,-0.009902,0.023439,-0.090913,0.623346,0.102268,-4.630031,-1.385347,-6.049132
00053,673900000,1970,1,1,0,0,35,0,0.454903,-0.077738,9.902163,0.024490,-0.008887,0.018847,-0.077583,0.620402,0.105875,-4.610559,-1.391332,-6.042542
00054,683900000,1970,1,1,0,0,35,0,0.461643,-0.097452,9.916214,0.011496,-0.024399,0.031087,-0.085936,0.623609,0.110213,-4.598705,-1.405763,-6.021038
00055,693900000,1970,1,1,0,0,35,0,0.342256,-0.124678,9.881857,-0.014814,-0.028366,0.038222,-0.094142,0.626683,0.112052,-4.602040,-1.422037,-6.000174
00056,703900000,1970,1,1,0,0,35,0,0.340799,-0.296164,9.835568,-0.016215,-0.016428,0.002899,-0.083303,0.626413,0.112954,-4.605680,-1.433039,-6.003838
00057,713900000,1970,1,1,0,0,35,0,0.254992,-0.172174,9.777272,-0.031789,-0.009041,-0.031366,-0.077737,0.626145,0.110907,-4.617724,-1.441528,-6.021010
00058,723900000,1970,1,1,0,0,35,0,0.284420,-0.082620,9.902308,-0.025955,-0.012856,-0.040949,-0.083882,0.615721,0.117878,-4.626272,-1.452692,-6.040947
00059,733900000,1970,1,1,0,0,35,0,0.369382,-0.062520,9.981534,-0.029198,-0.052296,-0.034500,-0.080730,0.615256,0.110610,-4.636828,-1.485983,-6.059865
00060,743900000,1970,1,1,0,0,35,0,0.361480,-0.080843,9.897863,-0.023751,-0.077433,-0.041981,-0.075612,0.620997,0.118590,-4.644143,-1.534023,-6.080020
00061,753900000,1970,1,1,0,0,35,0,0.444512,-0.004121,9.954653,0.010079,-0.088877,-0.055272,-0.086001,0.615258,0.107661,-4.631857,-1.589266,-6.104481
00062,763900000,1970,1,1,0,0,35,0,0.625190,-0.087278,9.915931,0.043731,-0.116347,-0.051022,-0.078103,0.623671,0.115885,-4.600381,-1.659859,-6.131355
00063,773900000,1970,1,1,0,0,35,0,0.590441,-0.192662,9.621130,0.005014,-0.105052,-0.028431,-0.078386,0.612714,0.115813,-4.591406,-1.723062,-6.140776
00064,783900000,1970,1,1,0,0,35,0,0.517478,-0.227146,9.574783,0.008647,-0.058333,-0.035339,-0.085936,0.623609,0.110213,-4.580149,-1.759872,-6.157610
00065,793900000,1970,1,1,0,0,35,0,0.500592,-0.240247,9.434390,-0.007419,-0.044934,-0.015723,-0.083144,0.615058,0.105389,-4.578417,-1.788078,-6.166985
00066,803900000,1970,1,1,0,0,35,0,0.641320,-0.340971,9.719656,-0.001127,-0.015480,-0.020952,-0.080523,0.629085,0.113197,-4.572949,-1.799722,-6.179317
00067,813900000,1970,1,1,0,0,35,0,0.478880,-0.252204,9.667650,0.008785,0.014692,-0.040104,-0.075387,0.617993,0.113577,-4.561391,-1.795052,-6.201650
00068,823900000,1970,1,1,0,0,35,0,0.469985,-0.322279,9.866055,-0.002657,0.021684,-0.035591,-0.075021,0.620467,0.108599,-4.556466,-1.786210,-6.220063
00069,833900000,1970,1,1,0,0,35,0,0.494975,-0.310445,9.870494,-0.023070,0.011976,-0.028643,-0.074950,0.623206,0.108617,-4.563373,-1.782607,-6.234138
00070,843900000,1970,1,1,0,0,35,0,0.529069,-0.321265,9.810741,-0.001604,0.012338,-0.044295,-0.080877,0.615388,0.113108,-4.557703,-1.779490,-6.257345
00071,853900000,1970,1,1,0,0,35,0,0.545836,-0.188950,9.757943,0.011244,0.007916,-0.037924,-0.072825,0.618058,0.116300,-4.544796,-1.778532,-6.280482
00072,863900000,1970,1,1,0,0,35,0,0.737573,-0.211734,9.778669,0.019864,-0.013241,-0.004900,-0.083368,0.618062,0.110402,-4.527555,-1.788264,-6.279100
00073,873900000,1970,1,1,0,0,35,0,0.746630,-0.184805,9.693726,0.073206,0.000585,-0.024493,-0.086155,0.621002,0.112693,-4.479394,-1.790862,-6.295312
00074,883900000,1970,1,1,0,0,35,0,0.462659,-0.134476,9.647527,0.063610,0.038334,-0.019770,-0.085936,0.623609,0.110213,-4.436765,-1.771672,-6.311067
00075,893900000,1970,1,1,0,0,35,0,0.393577,-0.157931,9.684947,0.057923,0.054128,-0.033776,-0.086084,0.623741,0.112711,-4.397118,-1.744082,-6.334510
00076,903900000,1970,1,1,0,0,35,0,0.445036,-0.101088,9.826962,0.052594,0.070750,-0.054071,-0.080363,0.617730,0.105632,-4.360165,-1.707880,-6.369886
00077,913900000,1970,1,1,0,0,35,0,0.506379,-0.073919,9.987926,0.037700,0.066239,-0.049801,-0.091503,0.623876,0.112260,-4.331831,-1.674098,-6.399643
00078,923900000,1970,1,1,0,0,35,0,0.473387,-0.078875,9.954897,0.027234,0.043661,-0.048756,-0.088581,0.632027,0.112539,-4.309566,-1.653060,-6.433234
00079,933900000,1970,1,1,0,0,35,0,0.472212,-0.110660,9.865143,0.016045,0.025393,-0.046613,-0.086302,0.621134,0.115191,-4.293778,-1.642402,-6.461930
00080,943900000,1970,1,1,0,0,35,0,0.521728,-0.081601,9.782945,0.017781,0.011799,-0.046399,-0.099266,0.626553,0.106605,-4.276997,-1.639518,-6.489312
00081,953900000,1970,1,1,0,0,35,0,0.588212,-0.048905,9.664601,0.034547,0.008792,-0.034742,-0.093994,0.626550,0.109554,-4.250828,-1.637727,-6.515869
00082,963900000,1970,1,1,0,0,35,0,0.445831,-0.040989,9.626901,0.051223,0.032125,-0.026538,-0.091131,0.620739,0.104748,-4.215189,-1.622317,-6.534942
00083,973900000,1970,1,1,0,0,35,0,0.406352,-0.054556,9.631402,0.095870,0.053624,-0.052052,-0.088646,0.623676,0.109987,-4.153530,-1.595700,-6.568120
00084,983900000,1970,1,1,0,0,35,0,0.456179,0.000930,9.868773,0.079402,0.066869,-0.044213,-0.086001,0.615258,0.107661,-4.101416,-1.561191,-6.595841
00085,993900000,1970,1,1,0,0,35,0,0.529055,0.042973,10.165668,0.073219,0.033414,-0.034129,-0.075482,0.612487,0.111053,-4.053049,-1.545372,-6.615824
00086,3900000,1970,1,1,0,0,36,0,0.392510,0.051068,9.884563,0.067782,0.005909,-0.053070,-0.075205,0.629059,0.113659,-4.007504,-1.546117,-6.640787
00087,13900000,1970,1,1,0,0,36,0,0.525939,-0.022938,9.902086,0.021498,0.000212,-0.020116,-0.085597,0.623318,0.102727,-3.989004,-1.548772,-6.646493
00088,23900000,1970,1,1,0,0,36,0,0.535526,-0.002349,9.887767,0.003216,-0.023524,0.001220,-0.091383,0.620979,0.107255,-3.981339,-1.564031,-6.645553
00089,33900000,1970,1,1,0,0,36,0,0.363091,-0.107166,9.674081,-0.001682,-0.027104,-0.001033,-0.083182,0.623516,0.107950,-3.976461,-1.581379,-6.648564
00090,43900000,1970,1,1,0,0,36,0,0.352311,-0.080009,9.724262,-0.004044,-0.012405,-0.016667,-0.082662,0.620246,0.097938,-3.972657,-1.591024,-6.656065
00091,53900000,1970,1,1,0,0,36,0,0.392612,-0.058938,9.803549,0.007028,-0.018329,-0.029181,-0.077903,0.617901,0.108365,-3.962302,-1.604558,-6.670599
00092,63900000,1970,1,1,0,0,36,0,0.437041,-0.004943,9.821560,0.021470,-0.024436,-0.039224,-0.099514,0.621181,0.106579,-3.943495,-1.622013,-6.688652
00093,73900000,1970,1,1,0,0,36,0,0.463553,-0.104806,9.789278,0.021158,-0.012484,-0.062756,-0.088667,0.615299,0.104947,-3.924517,-1.633350,-6.731636
00094,83900000,1970,1,1,0,0,36,0,0.410995,-0.020618,9.893529,0.012572,-0.001609,-0.083144,-0.082886,0.623251,0.102953,-3.910073,-1.639381,-6.779927
00095,93900000,1970,1,1,0,0,36,0,0.423164,-0.044935,9.903895,0.020067,-0.002957,-0.105297,-0.088596,0.618039,0.104965,-3.890948,-1.647087,-6.837044
00096,103900000,1970,1,1,0,0,36,0,0.458094,0.033541,9.867945,0.026918,-0.020470,-0.105161,-0.088519,0.615166,0.102448,-3.867924,-1.664710,-6.896956
00097,113900000,1970,1,1,0,0,36,0,0.587990,-0.077428,9.846542,0.010625,-0.051768,-0.077300,-0.083028,0.617771,0.102917,-3.854689,-1.699140,-6.939442
00098,123900000,1970,1,1,0,0,36,0,0.657084,-0.151483,9.574811,-0.019037,-0.041693,-0.055878,-0.109918,0.626666,0.100716,-3.858766,-1.727028,-6.966894
00099,133900000,1970,1,1,0,0,36,0,0.674225,-0.080258,9.691028,-0.012170,-0.011585,-0.049007,-0.093952,0.626526,0.107065,-3.859031,-1.737220,-7.004718
00100,143900000,1970,1,1,0,0,36,0,0.705927,-0.167380,9.593361,0.009371,0.007629,-0.062083,-0.094377,0.610087,0.106958,-3.846663,-1.737107,-7.040758
00101,153900000,1970,1,1,0,0,36,0,0.566574,-0.080450,9.612435,-0.023087,0.021923,-0.030733,-0.099148,0.623656,0.101600,-3.853427,-1.727591,-7.060806
00102,163900000,1970,1,1,0,0,36,0,0.539680,-0.056480,9.811846,-0.023969,0.025395,-0.000249,-0.091448,0.612627,0.104703,-3.861228,-1.714904,-7.064690
00103,173900000,1970,1,1,0,0,36,0,0.428747,-0.082673,9.812593,-0.027393,0.023489,-0.004586,-0.085744,0.623451,0.105226,-3.870886,-1.703538,-7.067667
00104,183900000,1970,1,1,0,0,36,0,0.333334,-0.050445,9.846762,-0.033335,0.033087,-0.007991,-0.085662,0.614966,0.100175,-3.883866,-1.686870,-7.069711
00105,193900000,1970,1,1,0,0,36,0,0.426089,0.038069,9.955325,-0.038138,0.023567,-0.013556,-0.091531,0.621111,0.109754,-3.899528,-1.675831,-7.075964
00106,203900000,1970,1,1,0,0,36,0,0.582309,0.052774,9.899562,-0.048530,0.016380,-0.004146,-0.110579,0.624456,0.110691,-3.921316,-1.668488,-7.079569
00107,213900000,1970,1,1,0,0,36,0,0.614391,0.092585,9.719825,-0.028688,0.006676,0.002740,-0.086329,0.618369,0.112685,-3.931885,-1.666278,-7.087892
00108,223900000,1970,1,1,0,0,36,0,0.650027,0.009857,9.656741,-0.024256,0.001832,0.022119,-0.091306,0.618106,0.104739,-3.940174,-1.666302,-7.071624
00109,233900000,1970,1,1,0,0,36,0,0.642486,0.062361,9.684704,-0.025799,-0.006645,0.046399,-0.091454,0.618239,0.107237,-3.949777,-1.670154,-7.044581
00110,243900000,1970,1,1,0,0,36,0,0.538290,-0.008467,9.675276,0.002731,-0.001672,0.054030,-0.099579,0.612829,0.104027,-3.943157,-1.670859,-7.013792
00111,253900000,1970,1,1,0,0,36,0,0.462313,-0.072833,9.668655,0.008354,0.017626,0.051328,-0.085963,0.620844,0.107706,-3.933268,-1.660578,-6.989923
00112,263900000,1970,1,1,0,0,36,0,0.411468,-0.035504,9.798018,0.006513,0.036690,0.043792,-0.088744,0.618171,0.107463,-3.924229,-1.639833,-6.963192
00113,273900000,1970,1,1,0,0,36,0,0.378775,0.023021,9.997653,0.030955,0.032374,0.014752,-0.099360,0.615436,0.101546,-3.900725,-1.622656,-6.955370
00114,283900000,1970,1,1,0,0,36,0,0.283091,-0.020302,10.154623,0.028643,0.018798,-0.025038,-0.091236,0.620846,0.104757,-3.877940,-1.614697,-6.975409
00115,293900000,1970,1,1,0,0,36,0,0.380546,0.016466,10.262776,0.004105,-0.000051,-0.037772,-0.093946,0.620914,0.104531,-3.868990,-1.618086,-6.996674
00116,303900000,1970,1,1,0,0,36,0,0.515285,-0.034359,10.109481,0.002799,-0.033548,-0.066073,-0.093798,0.620781,0.102033,-3.860364,-1.641691,-7.034297
00117,313900000,1970,1,1,0,0,36,0,0.815465,-0.241869,9.690354,-0.054729,-0.053876,-0.005237,-0.088892,0.618304,0.109961,-3.885703,-1.674573,-7.036009
00118,323900000,1970,1,1,0,0,36,0,0.836630,-0.180127,9.390832,-0.123793,-0.084246,0.092395,-0.099514,0.621181,0.106579,-3.952294,-1.721035,-6.978526
00119,333900000,1970,1,1,0,0,36,0,0.586983,-0.271547,9.040994,-0.026760,-0.048631,0.093475,-0.083105,0.620644,0.105433,-3.963335,-1.746979,-6.927544
00120,343900000,1970,1,1,0,0,36,0,0.493841,-0.335749,9.180851,0.058310,0.066014,0.010887,-0.085963,0.620844,0.107706,-3.924031,-1.710791,-6.919836
00121,353900000,1970,1,1,0,0,36,0,0.503504,-0.122779,9.648807,0.070625,0.105402,-0.009763,-0.091312,0.623719,0.107273,-3.877290,-1.652862,-6.927834
00122,363900000,1970,1,1,0,0,36,0,0.567321,-0.008600,9.949260,0.047188,0.096396,0.015724,-0.096431,0.617976,0.099291,-3.844424,-1.599056,-6.923588
00123,373900000,1970,1,1,0,0,36,0,0.510701,-0.015750,10.104109,0.005342,0.086541,0.031862,-0.085738,0.617839,0.102692,-3.835796,-1.550234,-6.912384
00124,383900000,1970,1,1,0,0,36,0,0.375893,0.035287,10.138234,-0.040143,0.074623,0.050763,-0.096798,0.615501,0.104270,-3.853486,-1.507589,-6.884094
00125,393900000,1970,1,1,0,0,36,0,0.274919,-0.068280,9.958002,-0.028633,0.066182,0.050335,-0.091094,0.626326,0.104793,-3.864586,-1.469683,-6.861982
00126,403900000,1970,1,1,0,0,36,0,0.308602,-0.087330,9.842395,-0.014668,0.024606,0.017450,-0.091094,0.626326,0.104793,-3.867214,-1.456876,-6.852916
00127,413900000,1970,1,1,0,0,36,0,0.301868,-0.062249,9.664433,0.026201,0.020716,0.006864,-0.089110,0.615697,0.112442,-3.846274,-1.446689,-6.849970
00128,423900000,1970,1,1,0,0,36,0,0.189097,-0.051122,9.648755,0.020736,0.021472,0.022235,-0.091744,0.612892,0.109700,-3.828687,-1.435487,-6.838181
00129,433900000,1970,1,1,0,0,36,0,0.236004,-0.017080,9.668159,0.009652,0.041006,0.000051,-0.086176,0.612624,0.107653,-3.817116,-1.413937,-6.841433
00130,443900000,1970,1,1,0,0,36,0,0.414505,-0.055936,9.601346,-0.055224,0.079825,0.008817,-0.088242,0.631738,0.105054,-3.842780,-1.369902,-6.838213
00131,453900000,1970,1,1,0,0,36,0,0.603153,0.105175,10.255928,-0.109178,0.065936,0.050476,-0.099006,0.629136,0.101636,-3.899929,-1.332195,-6.810680
00132,463900000,1970,1,1,0,0,36,0,0.502325,0.007336,10.240117,-0.083966,0.007093,0.030711,-0.083394,0.615297,0.107896,-3.942437,-1.328795,-6.798030
00133,473900000,1970,1,1,0,0,36,0,0.359505,-0.060969,9.833076,-0.124977,-0.027869,0.044195,-0.094093,0.621046,0.107030,-4.008627,-1.344933,-6.768876
00134,483900000,1970,1,1,0,0,36,0,0.295479,-0.130165,9.614096,-0.121967,0.002975,0.027297,-0.088531,0.626391,0.107516,-4.072846,-1.344017,-6.756280
00135,493900000,1970,1,1,0,0,36,0,0.332488,-0.174445,9.504838,-0.083068,0.039760,-0.009460,-0.088384,0.626258,0.105018,-4.114243,-1.323609,-6.762689
00136,503900000,1970,1,1,0,0,36,0,0.482561,-0.017911,9.673743,-0.049690,0.056004,-0.009423,-0.091017,0.623453,0.102276,-4.136495,-1.293923,-6.769870
00137,513900000,1970,1,1,0,0,36,0,0.457308,0.029950,9.891775,-0.017340,0.047747,0.014499,-0.088744,0.618171,0.107463,-4.140536,-1.267952,-6.764627
00138,523900000,1970,1,1,0,0,36,0,0.423093,-0.063793,9.855591,0.016608,0.028482,0.016952,-0.085673,0.626191,0.105244,-4.125170,-1.252900,-6.756339
00139,533900000,1970,1,1,0,0,36,0,0.360881,-0.043448,9.826364,0.013011,0.029161,0.025092,-0.080318,0.617704,0.103143,-4.111927,-1.237162,-6.741445
00140,543900000,1970,1,1,0,0,36,0,0.344510,-0.069902,9.880486,-0.003382,0.020165,0.023820,-0.091602,0.618371,0.109736,-4.108072,-1.226630,-6.725309
00141,553900000,1970,1,1,0,0,36,0,0.319261,-0.062399,9.903648,-0.018910,0.031175,0.017537,-0.083324,0.618036,0.107914,-4.113049,-1.209984,-6.719436
00142,563900000,1970,1,1,0,0,36,0,0.335703,-0.056517,9.943755,-0.030486,0.043428,0.010325,-0.083253,0.620776,0.107932,-4.124521,-1.186702,-6.713575
00143,573900000,1970,1,1,0,0,36,0,0.383892,-0.087834,9.935844,-0.007676,0.022130,-0.012795,-0.091454,0.618239,0.107237,-4.122662,-1.176544,-6.720189
00144,583900000,1970,1,1,0,0,36,0,0.375841,-0.094143,9.935119,0.020329,0.007713,-0.047979,-0.088531,0.626391,0.107516,-4.104379,-1.175996,-6.750691
00145,593900000,1970,1,1,0,0,36,0,0.390247,-0.131536,9.988345,0.025313,-0.005155,-0.066096,-0.077690,0.626121,0.108419,-4.083026,-1.183579,-6.788296
00146,603900000,1970,1,1,0,0,36,0,0.373375,-0.167635,9.946572,0.022174,-0.022708,-0.090434,-0.091383,0.620979,0.107255,-4.063145,-1.202241,-6.833624
00147,613900000,1970,1,1,0,0,36,0,0.384072,-0.072192,9.766260,0.039604,-0.042972,-0.083365,-0.097093,0.615767,0.109267,-4.033399,-1.232068,-6.881907
00148,623900000,1970,1,1,0,0,36,0,0.367008,-0.168576,9.654626,0.056270,-0.033597,-0.092427,-0.102366,0.615769,0.106318,-3.993982,-1.256838,-6.938106
00149,633900000,1970,1,1,0,0,36,0,0.348239,-0.114829,9.768042,0.064167,-0.016459,-0.094852,-0.094164,0.618306,0.107012,-3.949969,-1.271852,-6.997774
00150,643900000,1970,1,1,0,0,36,0,0.428869,-0.077421,9.773107,0.030265,-0.013152,-0.052750,-0.088963,0.615564,0.109943,-3.925878,-1.283357,-7.028011
00151,653900000,1970,1,1,0,0,36,0,0.446369,-0.071538,9.968133,-0.015393,-0.021583,-0.053980,-0.089028,0.607212,0.107392,-3.927907,-1.299761,-7.056280
00152,663900000,1970,1,1,0,0,36,0,0.465102,-0.016716,9.995384,-0.014471,-0.024348,-0.091545,-0.094383,0.615699,0.109492,-3.928914,-1.319201,-7.106925
00153,673900000,1970,1,1,0,0,36,0,0.414587,0.028813,9.964358,0.018431,-0.044079,-0.119667,-0.097170,0.618639,0.111783,-3.910697,-1.350978,-7.174919
00154,683900000,1970,1,1,0,0,36,0,0.377684,0.000146,9.746954,0.065646,-0.062319,-0.152597,-0.093940,0.615301,0.101997,-3.864944,-1.394418,-7.261736
00155,693900000,1970,1,1,0,0,36,0,0.397614,0.028971,9.551218,0.088715,-0.054413,-0.157104,-0.107432,0.629604,0.105956,-3.805814,-1.433458,-7.349407
00156,703900000,1970,1,1,0,0,36,0,0.378159,-0.046691,9.517167,0.086214,-0.035942,-0.163643,-0.102011,0.629469,0.106407,-3.747979,-1.462010,-7.446834
00157,713900000,1970,1,1,0,0,36,0,0.418291,0.029053,9.551685,0.096453,-0.026644,-0.151147,-0.096662,0.626594,0.106840,-3.684380,-1.484732,-7.533555
00158,723900000,1970,1,1,0,0,36,0,0.497671,0.030875,9.748480,0.081100,-0.037294,-0.094985,-0.099224,0.626529,0.104116,-3.630368,-1.511436,-7.584992
00159,733900000,1970,1,1,0,0,36,0,0.613709,-0.069508,9.815054,0.072097,-0.041339,-0.080172,-0.093934,0.609689,0.099463,-3.581738,-1.539840,-7.629333
00160,743900000,1970,1,1,0,0,36,0,0.716159,0.014349,10.060176,0.055909,-0.033567,-0.090563,-0.102218,0.615636,0.103819,-3.542181,-1.564160,-7.678533
00161,753900000,1970,1,1,0,0,36,0,0.714379,-0.037444,10.156314,0.026783,-0.054223,-0.090900,-0.096875,0.618374,0.106786,-3.519311,-1.600238,-7.730984
00162,763900000,1970,1,1,0,0,36,0,0.552546,-0.071826,9.959829,-0.002032,-0.061382,-0.100985,-0.096508,0.620849,0.101807,-3.512743,-1.640792,-7.785585
00163,773900000,1970,1,1,0,0,36,0,0.378562,-0.033875,9.686381,-0.006288,-0.053774,-0.109432,-0.105218,0.610357,0.106056,-3.508419,-1.677289,-7.844934
00164,783900000,1970,1,1,0,0,36,0,0.394277,-0.036314,9.490455,-0.013111,-0.022968,-0.119695,-0.107709,0.613032,0.103350,-3.507794,-1.696462,-7.916336
00165,793900000,1970,1,1,0,0,36,0,0.327807,-0.040729,9.396790,0.019620,0.032031,-0.133510,-0.099514,0.621181,0.106579,-3.488121,-1.684640,-7.997536
00166,803900000,1970,1,1,0,0,36,0,0.326329,0.072258,9.371324,0.015705,0.100710,-0.115757,-0.096715,0.607017,0.099220,-3.470913,-1.632955,-8.065437
00167,813900000,1970,1,1,0,0,36,0,0.470770,-0.003237,9.653327,0.045426,0.121011,-0.111647,-0.102147,0.618376,0.103837,-3.436794,-1.569489,-8.131503
00168,823900000,1970,1,1,0,0,36,0,0.457038,0.100165,9.912050,0.078736,0.110499,-0.141287,-0.110426,0.618711,0.105659,-3.383222,-1.512965,-8.216000
00169,833900000,1970,1,1,0,0,36,0,0.300867,0.089459,9.774372,0.036820,0.119778,-0.123593,-0.113065,0.621519,0.105451,-3.354023,-1.450436,-8.294215
00170,843900000,1970,1,1,0,0,36,0,0.461390,-0.077217,10.171782,0.080346,0.105014,-0.153474,-0.098923,0.620651,0.096585,-3.299541,-1.397280,-8.388990
00171,853900000,1970,1,1,0,0,36,0,0.226866,-0.023945,9.997952,0.075799,0.076246,-0.166595,-0.104202,0.626266,0.096170,-3.247531,-1.361012,-8.482460
00172,863900000,1970,1,1,0,0,36,0,0.229226,-0.023912,9.925036,0.043692,0.092818,-0.151138,-0.110130,0.618446,0.100662,-3.214198,-1.314644,-8.570132
00173,873900000,1970,1,1,0,0,36,0,0.319970,-0.011363,10.019506,0.032488,0.069163,-0.168190,-0.109912,0.621054,0.098181,-3.187156,-1.282266,-8.670176
00174,883900000,1970,1,1,0,0,36,0,0.288579,0.084495,9.976395,0.054061,0.024655,-0.182751,-0.117676,0.623731,0.092526,-3.147609,-1.275766,-8.775940
00175,893900000,1970,1,1,0,0,36,0,0.381643,0.049252,9.807011,0.067640,-0.006851,-0.184870,-0.101710,0.623591,0.098876,-3.100290,-1.287234,-8.884798
00176,903900000,1970,1,1,0,0,36,0,0.243685,0.074720,9.640753,0.088141,-0.023807,-0.198240,-0.115332,0.621189,0.097730,-3.040976,-1.308799,-8.992075
00177,913900000,1970,1,1,0,0,36,0,0.107569,0.023443,9.435046,0.096059,-0.010566,-0.205025,-0.112764,0.615641,0.097920,-2.977037,-1.322780,-9.110935
00178,923900000,1970,1,1,0,0,36,0,0.109057,-0.034725,9.304404,0.051600,0.033243,-0.181892,-0.120676,0.618451,0.094763,-2.938822,-1.310908,-9.216124
00179,933900000,1970,1,1,0,0,36,0,0.115061,0.000919,9.408781,-0.006581,0.067618,-0.144608,-0.118042,0.621256,0.097505,-2.934459,-1.278193,-9.303919
00180,943900000,1970,1,1,0,0,36,0,0.285999,-0.015044,9.610907,-0.009686,0.038606,-0.161528,-0.131446,0.621461,0.093879,-2.931700,-1.262590,-9.398030
00181,953900000,1970,1,1,0,0,36,0,0.522906,0.022544,9.636357,0.031914,-0.006873,-0.224951,-0.126468,0.621724,0.101825,-2.904381,-1.274760,-9.532953
00182,963900000,1970,1,1,0,0,36,0,0.727463,0.259480,9.443959,-0.050695,0.045222,-0.266361,-0.118326,0.610296,0.097434,-2.923799,-1.258357,-9.688990
00183,973900000,1970,1,1,0,0,36,0,0.506382,-0.043052,10.274034,-0.119723,0.069740,-0.275678,-0.123463,0.621391,0.097054,-2.982669,-1.228340,-9.847233
00184,983900000,1970,1,1,0,0,36,0,0.575544,-0.039317,10.092283,-0.100609,-0.006364,-0.238393,-0.126385,0.613239,0.096775,-3.031110,-1.240881,-9.982993
00185,993900000,1970,1,1,0,0,36,0,0.313351,-0.272720,9.921275,-0.181856,-0.093063,-0.230691,-0.129138,0.616147,0.096579,-3.126191,-1.302933,-10.113364
00186,3900000,1970,1,1,0,0,37,0,0.692792,0.355488,9.652610,-0.167444,-0.037958,-0.291822,-0.129286,0.616280,0.099078,-3.212061,-1.335590,-10.280633
00187,13900000,1970,1,1,0,0,37,0,0.699584,0.332788,9.567853,-0.138225,0.053614,-0.252926,-0.123870,0.621759,0.102064,-3.281604,-1.314830,-10.427656
00188,23900000,1970,1,1,0,0,37,0,0.457568,0.374448,9.528787,-0.105973,0.080543,-0.284824,-0.140566,0.611334,0.103138,-3.332260,-1.279901,-10.590038
00189,33900000,1970,1,1,0,0,37,0,0.434196,0.496597,9.514075,-0.026570,0.105968,-0.285734,-0.124148,0.605183,0.099458,-3.337555,-1.230459,-10.762560
00190,43900000,1970,1,1,0,0,37,0,0.457596,0.187623,9.843822,0.009992,0.069472,-0.280928,-0.138003,0.611400,0.105862,-3.322033,-1.201776,-10.922067
00191,53900000,1970,1,1,0,0,37,0,0.660984,0.060277,9.889580,0.035221,0.038315,-0.284155,-0.137566,0.616615,0.100900,-3.292129,-1.190899,-11.088305
00192,63900000,1970,1,1,0,0,37,0,0.418209,-0.076128,9.680199,0.011757,0.019721,-0.223747,-0.134849,0.610934,0.098591,-3.276392,-1.188624,-11.217361
00193,73900000,1970,1,1,0,0,37,0,0.536424,0.080618,9.797214,-0.009930,0.007350,-0.190716,-0.134849,0.610934,0.098591,-3.273465,-1.192335,-11.325768
00194,83900000,1970,1,1,0,0,37,0,0.449634,0.301406,9.745399,0.001220,-0.019409,-0.120242,-0.143129,0.611269,0.100413,-3.264982,-1.209039,-11.392695
00195,93900000,1970,1,1,0,0,37,0,0.178887,0.222026,9.634905,0.018486,0.003684,-0.053560,-0.138363,0.603311,0.108308,-3.247405,-1.210314,-11.426064
00196,103900000,1970,1,1,0,0,37,0,0.182108,0.212846,9.558101,0.060091,0.039814,-0.039180,-0.148403,0.611272,0.097463,-3.206120,-1.190452,-11.450359
00197,113900000,1970,1,1,0,0,37,0,0.257299,0.341120,9.454000,0.061461,0.094012,-0.005939,-0.137637,0.613875,0.100882,-3.164445,-1.138474,-11.461083
00198,123900000,1970,1,1,0,0,37,0,0.310614,0.263356,9.804884,0.075686,0.140573,-0.017180,-0.139768,0.624639,0.095730,-3.114431,-1.060250,-11.473539
00199,133900000,1970,1,1,0,0,37,0,0.354115,0.024081,10.108583,0.104128,0.114426,-0.078270,-0.142981,0.611137,0.097914,-3.047517,-0.998848,-11.520349
00200,143900000,1970,1,1,0,0,37,0,0.411878,-0.010501,10.357097,0.068997,0.074570,-0.087976,-0.143489,0.603181,0.102859,-3.000713,-0.960479,-11.574514
00201,153900000,1970,1,1,0,0,37,0,0.439176,0.142353,10.400646,0.044637,0.031412,-0.082086,-0.148480,0.614145,0.099980,-2.967964,-0.946589,-11.624563
00202,163900000,1970,1,1,0,0,37,0,0.529325,0.441818,10.272906,0.064672,-0.020249,-0.123550,-0.140341,0.608329,0.098122,-2.923376,-0.963443,-11.697451
00203,173900000,1970,1,1,0,0,37,0,0.502049,0.615774,10.134988,0.106865,-0.074823,-0.145625,-0.140489,0.608461,0.100621,-2.854343,-1.012119,-11.777451
00204,183900000,1970,1,1,0,0,37,0,0.381882,0.574259,10.073781,0.116979,-0.118713,-0.129844,-0.148031,0.608133,0.089949,-2.779603,-1.085361,-11.847346
00205,193900000,1970,1,1,0,0,37,0,0.381030,0.465967,10.082842,0.130082,-0.127475,-0.098171,-0.161815,0.617090,0.096371,-2.697616,-1.162627,-11.902557
00206,203900000,1970,1,1,0,0,37,0,0.373369,0.251377,10.156777,0.120570,-0.152847,-0.058517,-0.151031,0.602853,0.092186,-2.621527,-1.253255,-11.939495
00207,213900000,1970,1,1,0,0,37,0,0.353481,0.230744,10.127279,0.083054,-0.165617,-0.029093,-0.142845,0.622231,0.100485,-2.567232,-1.350425,-11.954469
00208,223900000,1970,1,1,0,0,37,0,0.249682,0.099848,10.045543,0.028373,-0.163201,-0.000986,-0.150529,0.616422,0.089777,-2.544606,-1.445525,-11.947373
00209,233900000,1970,1,1,0,0,37,0,0.029823,-0.067831,9.731322,-0.016361,-0.120296,0.011590,-0.137554,0.605388,0.095831,-2.547795,-1.515719,-11.939495
00210,243900000,1970,1,1,0,0,37,0,0.025148,-0.030054,9.729887,-0.064978,-0.038814,0.006398,-0.145326,0.613679,0.092709,-2.578678,-1.539430,-11.931731
00211,253900000,1970,1,1,0,0,37,0,0.230714,0.067880,9.977505,-0.058400,-0.032099,-0.000593,-0.145775,0.619691,0.102740,-2.605712,-1.559449,-11.931712
00212,263900000,1970,1,1,0,0,37,0,0.477939,-0.002143,10.042990,-0.020531,-0.054933,-0.033983,-0.145615,0.608331,0.095172,-2.610544,-1.593403,-11.949862
00213,273900000,1970,1,1,0,0,37,0,0.501251,0.170716,10.209088,0.002044,-0.102355,-0.041249,-0.148403,0.611272,0.097463,-2.602337,-1.654690,-11.972044
00214,283900000,1970,1,1,0,0,37,0,0.557626,0.096568,9.889869,-0.019049,-0.147771,0.015393,-0.142621,0.619225,0.095469,-2.607205,-1.740477,-11.961412
00215,293900000,1970,1,1,0,0,37,0,0.390641,0.002281,9.538909,-0.027643,-0.127446,-0.001181,-0.151185,0.608599,0.097220,-2.616666,-1.815095,-11.957016
00216,303900000,1970,1,1,0,0,37,0,0.286058,0.162016,9.221382,0.003705,-0.071829,-0.074973,-0.145615,0.608331,0.095172,-2.606798,-1.859776,-12.002071
00217,313900000,1970,1,1,0,0,37,0,0.421007,0.432430,9.178324,-0.010528,0.016558,-0.087987,-0.142905,0.608264,0.095398,-2.604728,-1.854210,-12.053427
00218,323900000,1970,1,1,0,0,37,0,0.524982,0.350792,9.474610,-0.031443,0.075689,-0.063223,-0.148107,0.611006,0.092466,-2.615061,-1.814159,-12.090692
00219,333900000,1970,1,1,0,0,37,0,0.611638,0.181423,9.729928,-0.016361,0.088339,-0.090502,-0.145988,0.611470,0.102687,-2.616287,-1.767578,-12.146140
00220,343900000,1970,1,1,0,0,37,0,0.711941,0.129669,9.860720,-0.008530,0.094532,-0.127646,-0.148037,0.613747,0.092483,-2.612405,-1.718431,-12.221615
00221,353900000,1970,1,1,0,0,37,0,0.803743,0.155793,9.973959,-0.034374,0.083059,-0.113876,-0.153606,0.614015,0.094531,-2.623636,-1.675491,-12.289226
00222,363900000,1970,1,1,0,0,37,0,0.841180,0.044886,9.913678,-0.013697,0.060068,-0.132835,-0.147966,0.616487,0.092501,-2.622777,-1.646205,-12.369381
00223,373900000,1970,1,1,0,0,37,0,0.896210,0.152797,9.805001,0.022172,0.045155,-0.188314,-0.145184,0.619160,0.092745,-2.600463,-1.626915,-12.477159
00224,383900000,1970,1,1,0,0,37,0,0.937249,0.348812,9.598953,0.025735,0.038113,-0.155798,-0.150895,0.613947,0.094757,-2.576663,-1.610767,-12.564319
00225,393900000,1970,1,1,0,0,37,0,1.023353,0.191860,9.550303,0.011366,0.052955,-0.129978,-0.148255,0.611139,0.094964,-2.561547,-1.585436,-12.640523
00226,403900000,1970,1,1,0,0,37,0,1.006358,0.208872,9.419252,-0.013588,0.076915,-0.121391,-0.159027,0.614150,0.094080,-2.560887,-1.546164,-12.711002
00227,413900000,1970,1,1,0,0,37,0,1.140968,0.201709,9.325361,-0.071740,0.133351,-0.073903,-0.150895,0.613947,0.094757,-2.594304,-1.473383,-12.760230
00228,423900000,1970,1,1,0,0,37,0,1.311148,0.153381,9.595184,-0.078709,0.154271,-0.089201,-0.156529,0.605861,0.094252,-2.631506,-1.389092,-12.814068
00229,433900000,1970,1,1,0,0,37,0,1.407575,0.150338,9.696611,-0.067500,0.152712,-0.095348,-0.164674,0.617290,0.098645,-2.662310,-1.305892,-12.874967
00230,443900000,1970,1,1,0,0,37,0,1.543388,0.140459,9.844745,-0.077008,0.152708,-0.071993,-0.167372,0.606131,0.093350,-2.698948,-1.222116,-12.924282
00231,453900000,1970,1,1,0,0,37,0,1.635434,-0.053803,9.985386,-0.049484,0.167872,-0.120504,-0.159465,0.608934,0.099042,-2.719300,-1.131013,-13.003424
00232,463900000,1970,1,1,0,0,37,0,1.736011,0.234224,10.055108,-0.045907,0.193472,-0.153260,-0.164957,0.606329,0.098573,-2.737321,-1.026222,-13.096719
00233,473900000,1970,1,1,0,0,37,0,1.981060,0.580144,10.109859,-0.087786,0.189011,-0.083571,-0.159317,0.608801,0.096543,-2.780207,-0.922128,-13.152659
00234,483900000,1970,1,1,0,0,37,0,2.139859,0.659827,10.024273,-0.092712,0.189736,-0.040476,-0.156600,0.603120,0.094234,-2.826347,-0.816492,-13.180483
00235,493900000,1970,1,1,0,0,37,0,2.483566,0.557260,10.100261,-0.080020,0.218167,-0.019308,-0.150747,0.613814,0.092258,-2.865395,-0.694055,-13.196712
00236,503900000,1970,1,1,0,0,37,0,2.781389,0.412108,10.454442,-0.045579,0.228623,-0.043861,-0.156600,0.603120,0.094234,-2.884557,-0.566400,-13.223580
00237,513900000,1970,1,1,0,0,37,0,2.936694,0.296460,10.624296,0.030918,0.147798,-0.072160,-0.167520,0.606263,0.095849,-2.859846,-0.485844,-13.269204
00238,523900000,1970,1,1,0,0,37,0,3.113857,0.275465,10.447474,0.081750,0.048936,-0.080625,-0.153452,0.608268,0.089498,-2.806050,-0.462125,-13.321326
00239,533900000,1970,1,1,0,0,37,0,3.189728,-0.039219,10.145744,0.086691,0.020490,-0.039173,-0.161655,0.605730,0.088803,-2.749586,-0.453556,-13.340861
00240,543900000,1970,1,1,0,0,37,0,2.921684,-0.308056,9.786404,0.087948,0.022422,-0.064959,-0.158797,0.605530,0.086530,-2.692311,-0.444623,-13.380129
00241,553900000,1970,1,1,0,0,37,0,2.814337,-0.313008,9.409152,0.046635,0.051479,-0.071293,-0.164431,0.597444,0.086025,-2.658677,-0.419260,-13.421981
00242,563900000,1970,1,1,0,0,37,0,2.817435,-0.240080,9.316553,-0.054450,0.135817,-0.043552,-0.151025,0.597239,0.089652,-2.683113,-0.344931,-13.453820
00243,573900000,1970,1,1,0,0,37,0,2.886239,0.000852,9.457914,-0.117954,0.196732,-0.016069,-0.159240,0.605928,0.094027,-2.744006,-0.235086,-13.464407
00244,583900000,1970,1,1,0,0,37,0,3.043616,0.195962,9.723524,-0.146665,0.238940,0.001389,-0.169711,0.603060,0.085610,-2.821440,-0.100669,-13.469909
00245,593900000,1970,1,1,0,0,37,0,3.120377,0.508729,9.945131,-0.126705,0.237802,0.049184,-0.145603,0.597104,0.090103,-2.887493,0.034396,-13.453608
00246,603900000,1970,1,1,0,0,37,0,3.176084,0.409279,10.159010,-0.118959,0.188000,0.146673,-0.153228,0.605263,0.084482,-2.948876,0.143740,-13.368284
00247,613900000,1970,1,1,0,0,37,0,3.010044,-0.200053,10.186711,-0.091557,0.152655,0.199353,-0.145462,0.602585,0.090139,-2.994342,0.234428,-13.256419
00248,623900000,1970,1,1,0,0,37,0,2.893682,-0.467185,10.231654,-0.041322,0.116268,0.148260,-0.156157,0.602722,0.086738,-3.010992,0.302754,-13.170095
00249,633900000,1970,1,1,0,0,37,0,2.675220,-0.432736,10.119507,-0.024148,0.081371,0.108940,-0.142964,0.594296,0.090311,-3.017914,0.349905,-13.111680
00250,643900000,1970,1,1,0,0,37,0,2.552704,-0.444529,10.024310,-0.030252,0.021382,0.121666,-0.147877,0.602387,0.084915,-3.028208,0.363043,-13.038365
00251,653900000,1970,1,1,0,0,37,0,2.480784,-0.609281,9.860416,-0.039620,0.010043,0.127790,-0.140034,0.596836,0.088055,-3.043871,0.369844,-12.963670
00252,663900000,1970,1,1,0,0,37,0,2.320321,-0.684076,9.872484,-0.055506,0.010371,0.101852,-0.147800,0.599514,0.082399,-3.068712,0.376014,-12.901018
00253,673900000,1970,1,1,0,0,37,0,2.133376,-0.504601,9.756186,-0.033197,-0.045523,0.115828,-0.140176,0.591355,0.088019,-3.080775,0.350604,-12.833109
00254,683900000,1970,1,1,0,0,37,0,2.171466,-0.094513,9.299066,-0.024122,-0.077811,0.186200,-0.142674,0.599644,0.087847,-3.087449,0.308855,-12.721076
00255,693900000,1970,1,1,0,0,37,0,2.295633,0.093692,9.293212,-0.023041,-0.016091,0.216101,-0.140324,0.591488,0.090518,-3.093448,0.303281,-12.594917
00256,703900000,1970,1,1,0,0,37,0,2.364725,0.266160,9.448652,0.022915,-0.012167,0.186608,-0.153960,0.600312,0.094442,-3.073228,0.298986,-12.486207
00257,713900000,1970,1,1,0,0,37,0,2.326291,0.360770,9.619910,0.062706,-0.043891,0.187533,-0.142751,0.602517,0.090364,-3.030278,0.276460,-12.382137
00258,723900000,1970,1,1,0,0,37,0,2.195495,0.241427,9.646138,0.062959,-0.100104,0.245600,-0.126693,0.588277,0.089129,-2.987044,0.223359,-12.236693
00259,733900000,1970,1,1,0,0,37,0,2.017814,-0.188349,9.556732,0.012999,-0.096496,0.315847,-0.134689,0.599574,0.091023,-2.972438,0.174289,-12.052529
00260,743900000,1970,1,1,0,0,37,0,1.726201,-0.548843,9.475525,-0.012119,-0.100078,0.330532,-0.115560,0.593355,0.087568,-2.972347,0.123525,-11.856483
00261,753900000,1970,1,1,0,0,37,0,1.649322,-0.743876,9.652595,-0.051279,-0.083954,0.306129,-0.121277,0.593756,0.092115,-2.994921,0.081258,-11.678252
00262,763900000,1970,1,1,0,0,37,0,1.680223,-0.501159,9.865461,-0.061679,-0.162445,0.325672,-0.123468,0.590552,0.081876,-3.023616,-0.005300,-11.478695
00263,773900000,1970,1,1,0,0,37,0,1.888663,-0.307054,9.769931,-0.084813,-0.182159,0.386671,-0.109985,0.587474,0.082986,-3.065982,-0.101200,-11.248637
00264,783900000,1970,1,1,0,0,37,0,1.960853,-0.302827,10.009604,-0.098482,-0.206060,0.406415,-0.118058,0.601644,0.087397,-3.116622,-0.210046,-11.009192
00265,793900000,1970,1,1,0,0,37,0,1.973243,-0.148592,10.031097,-0.063273,-0.278614,0.361561,-0.104646,0.595826,0.088489,-3.147525,-0.361678,-10.788245
00266,803900000,1970,1,1,0,0,37,0,1.982913,0.102674,9.946128,-0.056004,-0.334872,0.300621,-0.102001,0.587404,0.086162,-3.174623,-0.547357,-10.596414
00267,813900000,1970,1,1,0,0,37,0,2.348331,0.017957,9.588821,-0.064650,-0.342335,0.312113,-0.088086,0.595155,0.084844,-3.207393,-0.736906,-10.406400
00268,823900000,1970,1,1,0,0,37,0,1.283323,0.028127,10.123471,-0.019875,-0.189070,0.150625,-0.098852,0.592552,0.081425,-3.213689,-0.843926,-10.313643
00269,833900000,1970,1,1,0,0,37,0,1.972501,-0.359477,9.038613,-0.101123,-0.263461,0.436052,-0.096431,0.587137,0.084114,-3.269374,-0.984254,-10.055115
00270,843900000,1970,1,1,0,0,37,0,1.566796,-0.541456,8.887782,-0.129222,-0.146264,0.344954,-0.088086,0.595155,0.084844,-3.340666,-1.060314,-9.852430
00271,853900000,1970,1,1,0,0,37,0,1.416544,-0.417956,9.087081,-0.130004,-0.040616,0.257451,-0.096077,0.600839,0.084203,-3.411619,-1.078667,-9.703277
00272,863900000,1970,1,1,0,0,37,0,1.888857,-0.335407,9.241294,-0.101848,-0.023685,0.235933,-0.087862,0.592150,0.079829,-3.466151,-1.087963,-9.556389
00273,873900000,1970,1,1,0,0,37,0,1.825505,0.081489,9.378135,-0.037239,-0.009772,0.239745,-0.074237,0.594553,0.080974,-3.483814,-1.089109,-9.418395
00274,883900000,1970,1,1,0,0,37,0,1.724514,0.074428,9.528942,0.099937,-0.084243,0.208331,-0.071160,0.596960,0.076220,-3.422619,-1.134035,-9.295799
00275,893900000,1970,1,1,0,0,37,0,1.739778,0.155997,9.512392,0.233742,-0.102954,0.229587,-0.071166,0.602574,0.078754,-3.285133,-1.189201,-9.160497
00276,903900000,1970,1,1,0,0,37,0,1.721658,0.136358,9.425281,0.263978,-0.107589,0.314066,-0.065366,0.593687,0.069156,-3.131480,-1.244689,-8.976842
00277,913900000,1970,1,1,0,0,37,0,1.106780,0.041476,8.509937,0.258588,-0.129024,0.377497,-0.067929,0.593622,0.066432,-2.981947,-1.311026,-8.756362
00278,923900000,1970,1,1,0,0,37,0,0.889490,-0.275535,8.099570,0.122597,0.113490,0.450770,-0.053867,0.601240,0.062616,-2.911104,-1.236889,-8.501211
00279,933900000,1970,1,1,0,0,37,0,0.720352,-0.666140,8.534257,-0.051190,0.237307,0.526838,-0.053867,0.601240,0.062616,-2.940166,-1.089805,-8.206127
00280,943900000,1970,1,1,0,0,37,0,0.554659,-0.718074,8.637875,-0.226110,0.340451,0.607546,-0.059282,0.595762,0.059630,-3.069295,-0.880899,-7.868167
00281,953900000,1970,1,1,0,0,37,0,0.568859,-0.869859,9.145139,-0.383879,0.481543,0.602642,-0.051079,0.598300,0.060324,-3.287282,-0.590451,-7.538139
00282,963900000,1970,1,1,0,0,37,0,0.547060,-1.053874,10.062141,-0.406093,0.541162,0.536544,-0.034596,0.600502,0.059197,-3.515958,-0.266909,-7.249092
00283,973900000,1970,1,1,0,0,37,0,0.479454,-0.918435,10.649874,-0.336519,0.436388,0.475203,-0.040153,0.589543,0.056175,-3.703247,-0.004452,-6.992512
00284,983900000,1970,1,1,0,0,37,0,0.435829,-0.504313,10.726469,-0.183331,0.300210,0.394009,-0.031359,0.591550,0.046874,-3.801870,0.177722,-6.777896
00285,993900000,1970,1,1,0,0,37,0,0.323474,-0.080116,10.285739,0.011672,0.178095,0.305182,-0.017386,0.599272,0.043059,-3.788435,0.286864,-6.609563
00286,3900000,1970,1,1,0,0,38,0,-0.151188,0.171027,10.117604,0.162491,-0.019476,0.257376,-0.022360,0.593394,0.032575,-3.688532,0.281086,-6.461060
00287,13900000,1970,1,1,0,0,38,0,-0.376722,0.161556,9.112238,0.302390,-0.051486,0.166726,-0.008443,0.601147,0.031257,-3.508753,0.253386,-6.363251
00288,23900000,1970,1,1,0,0,38,0,-0.770791,0.489274,9.161077,0.332810,-0.067753,0.115692,-0.015844,0.606301,0.020618,-3.311721,0.214333,-6.294162
00289,33900000,1970,1,1,0,0,38,0,-0.885099,0.910470,8.619064,0.320689,-0.058487,0.163801,-0.018478,0.603495,0.017875,-3.121581,0.181911,-6.197968
00290,43900000,1970,1,1,0,0,38,0,-1.082169,0.931562,8.821752,0.244900,-0.034374,0.186205,-0.003816,0.604970,0.001526,-2.974796,0.163723,-6.081954
00291,53900000,1970,1,1,0,0,38,0,-1.159770,0.971757,8.991362,0.166629,0.085569,0.200334,-0.003462,0.618675,0.001615,-2.872843,0.214350,-5.967352
00292,63900000,1970,1,1,0,0,38,0,-1.580195,1.580346,9.432226,0.028027,0.195636,0.328354,-0.008435,0.612797,-0.008870,-2.849786,0.331521,-5.783556
00293,73900000,1970,1,1,0,0,38,0,-1.121955,0.787385,10.050909,-0.016572,0.114777,0.401482,0.002717,0.601032,-0.018036,-2.851697,0.404513,-5.556080
00294,83900000,1970,1,1,0,0,38,0,-1.374857,0.949336,9.741261,-0.001574,0.193152,0.316910,-0.010402,0.606586,-0.024127,-2.845036,0.519967,-5.378928
00295,93900000,1970,1,1,0,0,38,0,-1.312370,1.077539,10.217539,-0.041477,0.154945,0.303041,0.011732,0.605648,-0.029821,-2.860970,0.613186,-5.209208
00296,103900000,1970,1,1,0,0,38,0,-1.542701,1.155745,9.718904,-0.028658,0.096102,0.368362,0.007107,0.619090,-0.037681,-2.868866,0.674647,-4.999854
00297,113900000,1970,1,1,0,0,38,0,-2.059036,0.989673,9.177573,-0.104315,0.087345,0.451720,0.010492,0.610004,-0.052505,-2.919290,0.733636,-4.743007
00298,123900000,1970,1,1,0,0,38,0,-2.359233,0.737583,8.920137,-0.166276,0.159614,0.462019,-0.000128,0.607267,-0.058424,-3.004801,0.834613,-4.482482
00299,133900000,1970,1,1,0,0,38,0,-2.448843,0.512708,9.255718,-0.288313,0.257750,0.479916,0.016719,0.617561,-0.061998,-3.159539,0.992879,-4.215122
00300,143900000,1970,1,1,0,0,38,0,-2.310228,0.313547,9.763010,-0.362203,0.282823,0.528796,0.006742,0.633880,-0.070291,-3.355329,1.167922,-3.920873
00301,153900000,1970,1,1,0,0,38,0,-2.112791,-0.003209,10.244946,-0.344478,0.268630,0.492294,0.009974,0.630540,-0.080081,-3.540564,1.334616,-3.647791
00302,163900000,1970,1,1,0,0,38,0,-2.068255,-0.207723,10.656494,-0.300003,0.184953,0.418238,0.012986,0.624593,-0.087390,-3.700594,1.451616,-3.414481
00303,173900000,1970,1,1,0,0,38,0,-2.006335,-0.505884,10.715974,-0.252152,0.058850,0.346090,0.011002,0.635226,-0.095042,-3.833853,1.494456,-3.217984
00304,183900000,1970,1,1,0,0,38,0,-1.909039,-0.627803,10.602154,-0.208961,-0.053142,0.285921,0.005946,0.637837,-0.100474,-3.943118,1.471358,-3.051669
00305,193900000,1970,1,1,0,0,38,0,-1.867875,-0.704957,10.510540,-0.168002,-0.163075,0.224541,-0.010169,0.632495,-0.106862,-4.029865,1.383310,-2.916066
00306,203900000,1970,1,1,0,0,38,0,-1.904472,-0.812240,9.934347,-0.118930,-0.267158,0.186673,-0.017499,0.640390,-0.117483,-4.089198,1.234460,-2.797828
00307,213900000,1970,1,1,0,0,38,0,-2.114702,-0.959054,9.595450,-0.093531,-0.259141,0.158839,-0.017653,0.646138,-0.112449,-4.134616,1.089196,-2.695693
00308,223900000,1970,1,1,0,0,38,0,-2.699958,-0.805831,9.447845,-0.051783,-0.275481,0.065067,-0.014581,0.654160,-0.114669,-4.157335,0.930798,-2.646401
00309,233900000,1970,1,1,0,0,38,0,-2.651387,-0.595122,9.107285,-0.111962,-0.259617,0.056608,-0.025491,0.646075,-0.118124,-4.214745,0.781191,-2.602502
00310,243900000,1970,1,1,0,0,38,0,-2.487634,-0.663023,9.709938,-0.192359,-0.207996,0.063025,-0.041913,0.652227,-0.114443,-4.318318,0.661490,-2.556963
00311,253900000,1970,1,1,0,0,38,0,-2.429564,-0.562157,10.086774,-0.218125,-0.241641,0.020226,-0.039710,0.644202,-0.109273,-4.437007,0.520853,-2.534196
00312,263900000,1970,1,1,0,0,38,0,-2.109794,-0.363633,10.217069,-0.209222,-0.272305,-0.051160,-0.042274,0.644137,-0.111998,-4.550955,0.359587,-2.550541
00313,273900000,1970,1,1,0,0,38,0,-1.902728,0.242479,10.602644,-0.134863,-0.367895,-0.137456,-0.053491,0.647546,-0.105384,-4.622447,0.139823,-2.611550
00314,283900000,1970,1,1,0,0,38,0,-1.814266,0.858390,10.291523,0.031982,-0.453628,-0.160097,-0.058843,0.650422,-0.105817,-4.598063,-0.129920,-2.681476
00315,293900000,1970,1,1,0,0,38,0,-2.220626,1.509707,10.215018,0.213584,-0.526177,-0.199657,-0.069689,0.650692,-0.106720,-4.469141,-0.442757,-2.771086
00316,303900000,1970,1,1,0,0,38,0,-2.221803,1.541392,9.787935,0.337959,-0.505998,-0.171817,-0.070126,0.645476,-0.101757,-4.268573,-0.742529,-2.846590
00317,313900000,1970,1,1,0,0,38,0,-2.263750,1.480685,10.117031,0.362151,-0.474414,-0.129435,-0.064774,0.642599,-0.101323,-4.054064,-1.022154,-2.900280
00318,323900000,1970,1,1,0,0,38,0,-2.073993,1.230710,10.186854,0.344944,-0.453524,-0.109434,-0.075401,0.645478,-0.104707,-3.849314,-1.288785,-2.944399
00319,333900000,1970,1,1,0,0,38,0,-1.979838,1.049492,10.330367,0.320454,-0.400385,-0.147735,-0.086394,0.645881,-0.103110,-3.657752,-1.526257,-3.013365
00320,343900000,1970,1,1,0,0,38,0,-1.788197,1.420637,10.358826,0.281656,-0.357100,-0.139845,-0.094676,0.646216,-0.101288,-3.488187,-1.738417,-3.080128
00321,353900000,1970,1,1,0,0,38,0,-1.466152,1.570596,10.428096,0.260806,-0.346799,-0.099256,-0.089242,0.634851,-0.105907,-3.331002,-1.943042,-3.124633
00322,363900000,1970,1,1,0,0,38,0,-1.479223,1.458919,10.330779,0.243473,-0.308434,-0.046803,-0.083813,0.629102,-0.107991,-3.184561,-2.123858,-3.140915
00323,373900000,1970,1,1,0,0,38,0,-1.644055,1.232486,9.951697,0.228845,-0.323143,0.064530,-0.086453,0.631910,-0.108198,-3.048890,-2.309520,-3.093450
00324,383900000,1970,1,1,0,0,38,0,-1.744268,0.968846,9.403551,0.225790,-0.220200,0.107155,-0.092089,0.623822,-0.108703,-2.915921,-2.435089,-3.025099
00325,393900000,1970,1,1,0,0,38,0,-1.882669,1.021350,9.394808,0.186644,-0.107718,0.075019,-0.084102,0.623752,-0.105527,-2.804525,-2.497319,-2.978642
00326,403900000,1970,1,1,0,0,38,0,-1.596712,0.912935,9.605115,0.176007,-0.033371,0.076918,-0.086814,0.623820,-0.105753,-2.699208,-2.516966,-2.933245
00327,413900000,1970,1,1,0,0,38,0,-1.556288,0.543405,10.109694,0.182375,-0.019080,0.053881,-0.083594,0.631710,-0.110472,-2.589628,-2.529092,-2.901471
00328,423900000,1970,1,1,0,0,38,0,-1.498161,0.122853,10.347126,0.183703,-0.016330,0.043556,-0.094794,0.618275,-0.111464,-2.479027,-2.539913,-2.875692
00329,433900000,1970,1,1,0,0,38,0,-1.697606,-0.287307,10.294762,0.159864,0.002070,0.036582,-0.080942,0.617672,-0.115335,-2.381878,-2.540383,-2.854385
00330,443900000,1970,1,1,0,0,38,0,-1.727341,-0.558694,10.197956,0.133920,0.059822,0.017315,-0.110844,0.621288,-0.115299,-2.299059,-2.508218,-2.845452
00331,453900000,1970,1,1,0,0,38,0,-1.458441,-0.500521,10.248067,0.114925,0.116823,-0.054323,-0.099856,0.626500,-0.114361,-2.225294,-2.445004,-2.878839
00332,463900000,1970,1,1,0,0,38,0,-1.347164,-0.234413,10.293492,0.119086,0.109812,-0.095947,-0.097358,0.618210,-0.114189,-2.148201,-2.386613,-2.935812
00333,473900000,1970,1,1,0,0,38,0,-1.079070,-0.035010,9.873244,0.107086,0.105264,-0.095855,-0.100075,0.623892,-0.111879,-2.078042,-2.330712,-2.992553
00334,483900000,1970,1,1,0,0,38,0,-0.997092,0.158807,9.772899,0.113707,0.130608,-0.092275,-0.089301,0.620881,-0.110995,-2.004227,-2.260107,-3.047685
00335,493900000,1970,1,1,0,0,38,0,-1.001084,0.175781,9.954261,0.068225,0.136667,-0.066700,-0.091421,0.620418,-0.121218,-1.957107,-2.185433,-3.088191
00336,503900000,1970,1,1,0,0,38,0,-0.732154,-0.113921,10.325273,0.014867,0.145478,-0.051955,-0.094280,0.620618,-0.118944,-1.940927,-2.105363,-3.120374
00337,513900000,1970,1,1,0,0,38,0,-0.597204,-0.196787,10.671071,0.004255,0.130338,-0.054180,-0.102272,0.626303,-0.119585,-1.930837,-2.033979,-3.153513
00338,523900000,1970,1,1,0,0,38,0,-0.374473,-0.070452,10.784483,0.061696,0.076229,-0.066316,-0.108061,0.623962,-0.115056,-1.887670,-1.993765,-3.192538
00339,533900000,1970,1,1,0,0,38,0,-0.111084,0.083000,10.725595,0.121965,0.005101,-0.088167,-0.099484,0.623361,-0.121877,-1.809601,-1.994615,-3.242716
00340,543900000,1970,1,1,0,0,38,0,0.074127,0.391532,10.590691,0.217348,-0.066290,-0.118212,-0.096921,0.623426,-0.119152,-1.676293,-2.036777,-3.308860
00341,553900000,1970,1,1,0,0,38,0,0.196909,0.411431,10.275524,0.272428,-0.132549,-0.109026,-0.091504,0.628906,-0.116166,-1.511566,-2.116551,-3.368800
00342,563900000,1970,1,1,0,0,38,0,0.061512,0.202631,9.932128,0.285069,-0.145918,-0.108392,-0.091279,0.625900,-0.121182,-1.339521,-2.203788,-3.428424
00343,573900000,1970,1,1,0,0,38,0,-0.028232,0.340885,9.567010,0.263244,-0.124934,-0.134510,-0.093920,0.628708,-0.121390,-1.179296,-2.279132,-3.503543
00344,583900000,1970,1,1,0,0,38,0,0.212460,0.512460,9.489559,0.178490,-0.048961,-0.132212,-0.085709,0.625632,-0.123230,-1.067554,-2.310742,-3.578388
00345,593900000,1970,1,1,0,0,38,0,0.352923,0.700512,9.804976,0.102059,0.045048,-0.106377,-0.098976,0.631319,-0.126822,-1.000156,-2.288094,-3.639433
00346,603900000,1970,1,1,0,0,38,0,0.568676,0.759983,10.305472,0.049351,0.065858,-0.084691,-0.099342,0.628843,-0.121841,-0.963464,-2.253258,-3.688238
00347,613900000,1970,1,1,0,0,38,0,0.652901,0.626434,10.545163,0.035180,0.036617,-0.071798,-0.091131,0.625767,-0.123682,-0.935195,-2.235019,-3.729341
00348,623900000,1970,1,1,0,0,38,0,0.597825,0.398944,10.501618,-0.006913,0.003633,-0.060937,-0.096844,0.620553,-0.121669,-0.931299,-2.235560,-3.763901
00349,633900000,1970,1,1,0,0,38,0,0.498471,0.291000,10.311415,-0.043589,-0.019777,-0.061486,-0.094292,0.631847,-0.113874,-0.948421,-2.249519,-3.798564
00350,643900000,1970,1,1,0,0,38,0,0.430522,0.417022,9.895589,-0.063926,-0.017744,-0.061356,-0.091001,0.642479,-0.118576,-0.977179,-2.262325,-3.833156
00351,653900000,1970,1,1,0,0,38,0,0.425088,0.672370,9.524810,-0.078910,0.021342,-0.057686,-0.100146,0.621151,-0.111897,-1.014601,-2.252707,-3.866034
00352,663900000,1970,1,1,0,0,38,0,0.517734,0.891753,9.337895,-0.047367,0.055827,-0.059852,-0.096791,0.640138,-0.114046,-1.033898,-2.223366,-3.900517
00353,673900000,1970,1,1,0,0,38,0,0.556574,1.131286,9.271258,-0.014606,0.086883,-0.058986,-0.097299,0.632180,-0.109101,-1.034450,-2.176230,-3.934817
00354,683900000,1970,1,1,0,0,38,0,0.482531,1.130422,9.566271,0.019446,0.101713,-0.041861,-0.091510,0.634521,-0.113631,-1.015879,-2.120413,-3.959445
00355,693900000,1970,1,1,0,0,38,0,0.512633,1.002270,9.742262,0.066178,0.057841,-0.026026,-0.094517,0.634854,-0.108857,-0.970895,-2.089552,-3.974515
00356,703900000,1970,1,1,0,0,38,0,0.694343,0.711663,9.813147,0.073481,0.066348,-0.033948,-0.102136,0.637399,-0.117015,-0.921570,-2.053873,-3.994184
00357,713900000,1970,1,1,0,0,38,0,0.625330,0.716640,9.946608,0.077279,0.071083,-0.065204,-0.099862,0.632115,-0.111826,-0.869455,-2.015743,-4.031788
00358,723900000,1970,1,1,0,0,38,0,0.702704,0.896447,9.903440,0.069093,0.053324,-0.058671,-0.088869,0.631712,-0.113423,-0.822202,-1.987693,-4.065443
00359,733900000,1970,1,1,0,0,38,0,0.677629,1.104218,9.793204,0.070089,0.042277,-0.029588,-0.094298,0.637462,-0.111339,-0.774974,-1.965709,-4.082310
00360,743900000,1970,1,1,0,0,38,0,0.617453,1.071039,9.682029,0.068422,0.032195,0.004583,-0.094587,0.632113,-0.108875,-0.729389,-1.949226,-4.079501
00361,753900000,1970,1,1,0,0,38,0,0.572703,0.928472,9.706225,0.042748,0.026847,0.029652,-0.091728,0.631913,-0.111149,-0.699009,-1.935630,-4.062266
00362,763900000,1970,1,1,0,0,38,0,0.562515,0.751725,9.776097,0.004925,0.013579,0.040733,-0.092018,0.626563,-0.108685,-0.690526,-1.929561,-4.038580
00363,773900000,1970,1,1,0,0,38,0,0.482784,0.523429,9.733767,-0.011002,0.009623,0.034246,-0.078177,0.637190,-0.107486,-0.691068,-1.925798,-4.018582
00364,783900000,1970,1,1,0,0,38,0,0.445492,0.390556,9.760626,-0.002013,0.016593,0.003668,-0.099650,0.640338,-0.111772,-0.685889,-1.918244,-4.016148
00365,793900000,1970,1,1,0,0,38,0,0.428881,0.396387,9.847564,0.018704,0.018748,-0.045568,-0.097364,0.623824,-0.111654,-0.667920,-1.909782,-4.041987
00366,803900000,1970,1,1,0,0,38,0,0.537570,0.536633,9.942866,0.039469,0.018202,-0.067811,-0.091663,0.640268,-0.108596,-0.637663,-1.901755,-4.080548
00367,813900000,1970,1,1,0,0,38,0,0.616746,0.589497,9.990878,0.059614,0.002338,-0.065016,-0.084173,0.621011,-0.105545,-0.595942,-1.902765,-4.117395
00368,823900000,1970,1,1,0,0,38,0,0.516304,0.499791,9.885105,0.070499,-0.016455,-0.067252,-0.097506,0.618342,-0.111690,-0.547976,-1.914517,-4.155413
00369,833900000,1970,1,1,0,0,38,0,0.398862,0.391884,9.716015,0.042652,-0.029827,-0.047698,-0.094292,0.631847,-0.113874,-0.516363,-1.933790,-4.182181
00370,843900000,1970,1,1,0,0,38,0,0.332461,0.308103,9.634592,-0.022403,0.003473,-0.015470,-0.092095,0.629437,-0.106168,-0.522667,-1.933799,-4.190634
00371,853900000,1970,1,1,0,0,38,0,0.352990,0.261479,9.732391,-0.065519,0.026730,-0.008260,-0.083736,0.626228,-0.110508,-0.553846,-1.920434,-4.195081
00372,863900000,1970,1,1,0,0,38,0,0.382026,0.298004,9.783655,-0.069548,0.022782,-0.000502,-0.086453,0.631910,-0.108198,-0.587514,-1.909279,-4.195057
00373,873900000,1970,1,1,0,0,38,0,0.464155,0.374907,9.897856,-0.045507,0.010270,-0.017356,-0.089454,0.626628,-0.105960,-0.607128,-1.905381,-4.204635
00374,883900000,1970,1,1,0,0,38,0,0.497091,0.503918,9.842174,-0.007099,-0.022552,-0.023907,-0.100229,0.629639,-0.106845,-0.604643,-1.920318,-4.217771
00375,893900000,1970,1,1,0,0,38,0,0.561918,0.476938,9.728892,0.029150,-0.040175,-0.026351,-0.094658,0.629372,-0.108893,-0.581372,-1.945355,-4.232217
00376,903900000,1970,1,1,0,0,38,0,0.549505,0.423079,9.509609,0.067250,-0.060395,-0.034583,-0.089236,0.629237,-0.108442,-0.536139,-1.982004,-4.251266
00377,913900000,1970,1,1,0,0,38,0,0.426980,0.439014,9.187307,0.083399,-0.041927,-0.044042,-0.091651,0.629039,-0.113666,-0.481483,-2.008094,-4.275862
00378,923900000,1970,1,1,0,0,38,0,0.411818,0.397724,8.970193,0.050959,-0.004529,-0.017276,-0.103082,0.624225,-0.107106,-0.445974,-2.012601,-4.285309
00379,933900000,1970,1,1,0,0,38,0,0.358618,0.268436,8.902514,0.002576,0.049846,-0.011214,-0.094729,0.626631,-0.108911,-0.438340,-1.985911,-4.291537
00380,943900000,1970,1,1,0,0,38,0,0.387237,0.258592,8.979659,-0.041624,0.114680,-0.003150,-0.102574,0.632183,-0.112051,-0.456214,-1.922029,-4.293409
00381,953900000,1970,1,1,0,0,38,0,0.385438,0.288673,9.214878,-0.056387,0.154767,-0.009528,-0.094812,0.635119,-0.103859,-0.482464,-1.835201,-4.299164
00382,963900000,1970,1,1,0,0,38,0,0.429417,0.437533,9.402715,-0.070441,0.162982,0.000699,-0.097299,0.632180,-0.109101,-0.516990,-1.743605,-4.299116
00383,973900000,1970,1,1,0,0,38,0,0.592373,0.371104,9.683439,-0.082110,0.182408,-0.007732,-0.091947,0.629304,-0.108667,-0.558086,-1.640916,-4.304078
00384,983900000,1970,1,1,0,0,38,0,0.597023,0.340797,10.013849,-0.099142,0.154597,0.007088,-0.086530,0.634784,-0.105681,-0.609221,-1.554072,-4.300448
00385,993900000,1970,1,1,0,0,38,0,0.526767,0.219022,10.090343,-0.097893,0.114190,0.011216,-0.089663,0.626846,-0.106022,-0.659737,-1.490342,-4.294267
00386,3900000,1970,1,1,0,0,39,0,0.381309,0.149517,10.100626,-0.079114,0.086320,-0.029968,-0.087093,0.621294,-0.105832,-0.698931,-1.442849,-4.311556
00387,13900000,1970,1,1,0,0,39,0,0.480527,0.232421,10.172461,-0.039452,0.061811,-0.071611,-0.092376,0.626913,-0.106248,-0.714854,-1.409688,-4.352550
00388,23900000,1970,1,1,0,0,39,0,0.591233,0.372039,10.178205,0.015223,0.024196,-0.090446,-0.089297,0.629323,-0.111005,-0.699249,-1.398202,-4.404069
00389,33900000,1970,1,1,0,0,39,0,0.499458,0.437090,9.901762,0.068055,-0.012467,-0.095716,-0.092009,0.629390,-0.111231,-0.653333,-1.407717,-4.458347
00390,43900000,1970,1,1,0,0,39,0,0.372464,0.395026,9.582817,0.073913,-0.025705,-0.084565,-0.094651,0.632200,-0.111439,-0.604242,-1.424693,-4.506171
00391,53900000,1970,1,1,0,0,39,0,0.312409,0.370411,9.372766,0.035394,0.003238,-0.072137,-0.099786,0.637687,-0.114355,-0.577418,-1.424967,-4.547056
00392,63900000,1970,1,1,0,0,39,0,0.336943,0.332762,9.349200,0.004263,0.051031,-0.079122,-0.097145,0.634877,-0.114147,-0.568366,-1.397876,-4.592216
00393,73900000,1970,1,1,0,0,39,0,0.416787,0.437995,9.544228,-0.005649,0.090187,-0.113771,-0.092074,0.621031,-0.113785,-0.564572,-1.348529,-4.657442
00394,83900000,1970,1,1,0,0,39,0,0.576968,0.536630,9.787490,-0.006142,0.091839,-0.127105,-0.086655,0.626513,-0.110797,-0.560969,-1.298292,-4.730307
00395,93900000,1970,1,1,0,0,39,0,0.610924,0.636779,9.893333,0.030423,0.077640,-0.145966,-0.094941,0.626848,-0.108974,-0.536264,-1.256270,-4.813883
00396,103900000,1970,1,1,0,0,39,0,0.543627,0.681026,9.859495,0.055845,0.064755,-0.141962,-0.094716,0.623841,-0.113993,-0.497128,-1.221555,-4.895091
00397,113900000,1970,1,1,0,0,39,0,0.506191,0.625611,9.827271,0.062157,0.047823,-0.131685,-0.094580,0.634942,-0.111421,-0.454570,-1.196423,-4.970287
00398,123900000,1970,1,1,0,0,39,0,0.498434,0.710035,9.749489,0.058523,0.035241,-0.112463,-0.094503,0.632067,-0.113939,-0.414369,-1.178354,-5.034385
00399,133900000,1970,1,1,0,0,39,0,0.414754,0.772120,9.739972,0.041954,0.056822,-0.101021,-0.091720,0.634742,-0.113696,-0.383857,-1.147826,-5.092010
00400,143900000,1970,1,1,0,0,39,0,0.274100,0.792647,9.793311,0.053488,0.049280,-0.110101,-0.097210,0.626518,-0.116701,-0.346677,-1.121608,-5.154784
00401,153900000,1970,1,1,0,0,39,0,0.222994,0.725860,9.814502,0.056449,0.052742,-0.093942,-0.097068,0.632002,-0.116665,-0.308034,-1.093300,-5.208295
00402,163900000,1970,1,1,0,0,39,0,0.021663,0.735116,9.899787,0.069528,0.048971,-0.127030,-0.105064,0.637689,-0.117307,-0.261586,-1.067195,-5.280727
00403,173900000,1970,1,1,0,0,39,0,0.050481,0.879337,10.013971,0.071999,0.055988,-0.157041,-0.102641,0.632270,-0.114616,-0.213466,-1.037065,-5.370358
00404,183900000,1970,1,1,0,0,39,0,-0.040471,1.162525,10.192561,0.062912,0.029154,-0.118102,-0.094208,0.631802,-0.118940,-0.171009,-1.022149,-5.437590
00405,193900000,1970,1,1,0,0,39,0,-0.093039,1.192537,10.239031,0.055617,-0.012305,-0.044703,-0.113189,0.626658,-0.123056,-0.133506,-1.030809,-5.462674
00406,203900000,1970,1,1,0,0,39,0,-0.296008,1.221531,10.191216,0.066494,-0.027414,-0.020952,-0.099568,0.640296,-0.116837,-0.090025,-1.048069,-5.474182
00407,213900000,1970,1,1,0,0,39,0,-0.528319,1.272661,10.107078,0.099983,-0.072443,-0.005500,-0.107693,0.629265,-0.122587,-0.027532,-1.091090,-5.476774
00408,223900000,1970,1,1,0,0,39,0,-0.667497,1.256619,9.941147,0.114873,-0.092647,0.002763,-0.099627,0.626320,-0.121927,0.043388,-1.145663,-5.474722
00409,233900000,1970,1,1,0,0,39,0,-0.751345,1.142940,10.036157,0.090779,-0.042086,0.018234,-0.091489,0.626117,-0.121250,0.100314,-1.171256,-5.463799
00410,243900000,1970,1,1,0,0,39,0,-1.066635,1.185015,10.279819,0.054138,-0.053144,0.004224,-0.096624,0.631604,-0.124166,0.136386,-1.203153,-5.460941
00411,253900000,1970,1,1,0,0,39,0,-1.005018,1.217596,10.517811,0.017758,-0.060687,0.054588,-0.101973,0.628864,-0.127136,0.150984,-1.239418,-5.429267
00412,263900000,1970,1,1,0,0,39,0,-1.131038,1.303296,10.659424,-0.005719,-0.099804,0.092238,-0.091507,0.642969,-0.113642,0.151616,-1.298131,-5.376074
00413,273900000,1970,1,1,0,0,39,0,-1.295376,1.379863,10.668666,0.006984,-0.146252,0.100599,-0.094202,0.626185,-0.121476,0.159339,-1.383441,-5.318143
00414,283900000,1970,1,1,0,0,39,0,-1.249451,1.350237,10.523091,0.017719,-0.178555,0.112557,-0.094054,0.626052,-0.123976,0.172932,-1.487261,-5.253457
00415,293900000,1970,1,1,0,0,39,0,-1.384915,1.241543,10.451326,0.044398,-0.207922,0.091638,-0.096695,0.628862,-0.124184,0.202002,-1.607865,-5.200851
00416,303900000,1970,1,1,0,0,39,0,-1.536476,1.099875,9.968224,0.087510,-0.225089,0.076243,-0.096400,0.628596,-0.129185,0.255910,-1.738274,-5.157205
00417,313900000,1970,1,1,0,0,39,0,-1.889121,1.023298,9.581966,0.131616,-0.174130,0.024661,-0.096979,0.617893,-0.124256,0.335909,-1.839350,-5.143119
00418,323900000,1970,1,1,0,0,39,0,-1.724501,1.138813,9.518412,0.135806,-0.098838,-0.001411,-0.096465,0.620237,-0.131739,0.418754,-1.897165,-5.143840
00419,333900000,1970,1,1,0,0,39,0,-2.298753,1.229803,9.698690,0.141028,-0.025781,-0.078863,-0.091259,0.617492,-0.128805,0.506045,-1.912728,-5.188711
00420,343900000,1970,1,1,0,0,39,0,-2.363231,1.577118,9.806580,0.173466,0.027401,-0.155289,-0.095879,0.625323,-0.139205,0.613356,-1.897267,-5.277112
00421,353900000,1970,1,1,0,0,39,0,-1.810440,1.829575,10.495943,0.120734,0.015943,0.006072,-0.096317,0.620104,-0.134240,0.687376,-1.889231,-5.273079
00422,363900000,1970,1,1,0,0,39,0,-1.295701,1.609324,10.849320,0.187828,-0.112955,0.059768,-0.095726,0.619573,-0.144241,0.798832,-1.955411,-5.239201
00423,373900000,1970,1,1,0,0,39,0,-1.516322,1.030630,10.331566,0.293824,-0.191458,-0.023908,-0.095879,0.625323,-0.139205,0.972672,-2.065878,-5.254161
00424,383900000,1970,1,1,0,0,39,0,-1.735130,0.532405,9.669847,0.380202,-0.180241,-0.126360,-0.092647,0.621983,-0.148998,1.198197,-2.168719,-5.328114
00425,393900000,1970,1,1,0,0,39,0,-1.988349,0.243476,8.927844,0.444925,-0.136274,-0.182338,-0.090147,0.613688,-0.148826,1.462125,-2.245275,-5.434002
00426,403900000,1970,1,1,0,0,39,0,-2.481933,0.061498,8.095567,0.519859,-0.005808,-0.306891,-0.100619,0.605201,-0.159784,1.771756,-2.244521,-5.609563
00427,413900000,1970,1,1,0,0,39,0,-2.739856,-0.104256,7.735244,0.460748,0.210014,-0.398910,-0.092274,0.618842,-0.156517,2.049145,-2.117472,-5.833732
00428,423900000,1970,1,1,0,0,39,0,-2.699422,-0.189390,8.293462,0.304930,0.457615,-0.437094,-0.086488,0.626801,-0.158513,2.236996,-1.846871,-6.073874
00429,433900000,1970,1,1,0,0,39,0,-2.507732,0.165973,9.196893,0.202412,0.582853,-0.491198,-0.080904,0.615299,-0.165634,2.365590,-1.502606,-6.341329
00430,443900000,1970,1,1,0,0,39,0,-2.235445,1.090946,9.943239,0.132999,0.603138,-0.501767,-0.091021,0.620523,-0.176503,2.452857,-1.145921,-6.613629
00431,453900000,1970,1,1,0,0,39,0,-1.981637,1.911496,10.670683,0.092660,0.549623,-0.434930,-0.093733,0.620590,-0.176728,2.514735,-0.821129,-6.848505
00432,463900000,1970,1,1,0,0,39,0,-1.530870,2.120572,11.283441,0.172109,0.442894,-0.412552,-0.069462,0.614498,-0.174733,2.620798,-0.557617,-7.072803
00433,473900000,1970,1,1,0,0,39,0,-1.463404,2.359670,11.379673,0.324274,0.292873,-0.418900,-0.075029,0.609148,-0.175220,2.813235,-0.379177,-7.304059
00434,483900000,1970,1,1,0,0,39,0,-1.647067,2.394145,11.142656,0.401549,0.104118,-0.373982,-0.072246,0.611823,-0.174976,3.049325,-0.309168,-7.514512
00435,493900000,1970,1,1,0,0,39,0,-1.604907,1.833744,10.573504,0.403548,-0.034986,-0.319196,-0.059121,0.606266,-0.168883,3.286300,-0.319572,-7.697722
00436,503900000,1970,1,1,0,0,39,0,-1.831957,1.345434,9.952693,0.402625,-0.110404,-0.289786,-0.061686,0.606201,-0.171609,3.522753,-0.373326,-7.866698
00437,513900000,1970,1,1,0,0,39,0,-2.053303,1.028551,9.329241,0.344816,-0.145420,-0.242788,-0.056633,0.609206,-0.163638,3.726079,-0.448124,-8.010298
00438,523900000,1970,1,1,0,0,39,0,-2.333763,1.087834,9.122824,0.213606,-0.087501,-0.208446,-0.051143,0.617431,-0.160633,3.854184,-0.490661,-8.132280
00439,533900000,1970,1,1,0,0,39,0,-2.167597,1.324772,9.839263,0.069088,0.012820,-0.241412,-0.046149,0.606459,-0.157753,3.899613,-0.474349,-8.269281
00440,543900000,1970,1,1,0,0,39,0,-1.913813,1.945732,10.417938,-0.017114,-0.043364,-0.166928,-0.049743,0.601706,-0.145512,3.895303,-0.492971,-8.365886
00441,553900000,1970,1,1,0,0,39,0,-1.801799,2.390491,10.876854,-0.058574,-0.070878,-0.079129,-0.042338,0.596550,-0.134869,3.866847,-0.530725,-8.413372
00442,563900000,1970,1,1,0,0,39,0,-1.245635,2.557143,10.946571,-0.067386,-0.129141,-0.069568,-0.045418,0.594141,-0.130112,3.833353,-0.602154,-8.457599
00443,573900000,1970,1,1,0,0,39,0,-0.394251,1.400345,11.561426,0.015242,-0.033529,-0.178297,-0.046080,0.591929,-0.120128,3.847867,-0.614738,-8.560313
00444,583900000,1970,1,1,0,0,39,0,-0.930884,2.591873,12.258439,0.224296,-0.108767,-0.733124,-0.049088,0.592262,-0.115353,3.985715,-0.648468,-8.983158
00445,593900000,1970,1,1,0,0,39,0,-0.262751,2.678800,10.163267,0.441013,-0.120525,-0.635938,-0.044029,0.589650,-0.109919,4.247372,-0.691414,-9.351062
00446,603900000,1970,1,1,0,0,39,0,-0.599476,2.534993,9.886276,0.351450,0.251583,-0.596385,-0.047109,0.587241,-0.105162,4.456906,-0.521964,-9.680318
00447,613900000,1970,1,1,0,0,39,0,-1.592559,3.120466,10.853872,0.374668,0.304015,-0.479048,-0.061410,0.588243,-0.093788,4.678174,-0.326670,-9.939535
00448,623900000,1970,1,1,0,0,39,0,-1.663438,3.445080,11.859722,0.354495,-0.196184,-0.211311,-0.058183,0.590519,-0.101046,4.886831,-0.428764,-10.069085
00449,633900000,1970,1,1,0,0,39,0,-0.630543,3.047811,10.466625,0.288298,-0.426676,-0.052044,-0.067421,0.583291,-0.086774,5.057206,-0.669878,-10.119432
00450,643900000,1970,1,1,0,0,39,0,-0.817754,2.321613,10.554745,0.186713,-0.355874,-0.007970,-0.065004,0.583489,-0.081548,5.169200,-0.872708,-10.141689
00451,653900000,1970,1,1,0,0,39,0,-0.640960,1.296747,10.586227,0.168322,-0.346804,-0.062158,-0.065447,0.583887,-0.074046,5.271253,-1.067485,-10.194707
00452,663900000,1970,1,1,0,0,39,0,-0.632684,1.110839,10.088864,0.119719,-0.331785,-0.105950,-0.065743,0.584153,-0.069046,5.346114,-1.251277,-10.272234
00453,673900000,1970,1,1,0,0,39,0,-0.638215,1.099851,9.805424,-0.038671,-0.277980,-0.138758,-0.066328,0.579067,-0.061580,5.330804,-1.402575,-10.365702
00454,683900000,1970,1,1,0,0,39,0,-0.441791,0.877249,9.685235,-0.169006,-0.197311,-0.199187,-0.072120,0.576725,-0.057049,5.241765,-1.504736,-10.489254
00455,693900000,1970,1,1,0,0,39,0,-0.207827,0.902318,9.653739,-0.176728,-0.116205,-0.304652,-0.091190,0.585690,-0.053574,5.149939,-1.555329,-10.668688
00456,703900000,1970,1,1,0,0,39,0,-0.039475,1.375722,9.439412,-0.140754,-0.038966,-0.368136,-0.091409,0.583080,-0.051092,5.079669,-1.558851,-10.880501
00457,713900000,1970,1,1,0,0,39,0,-0.047057,1.782537,9.401810,-0.122048,0.019068,-0.354876,-0.089146,0.589028,-0.040829,5.019777,-1.530147,-11.081598
00458,723900000,1970,1,1,0,0,39,0,-0.171089,1.936841,9.363438,-0.052477,0.023369,-0.340099,-0.083939,0.586284,-0.037895,4.999402,-1.499862,-11.273928
00459,733900000,1970,1,1,0,0,39,0,-0.195324,1.572415,9.134556,0.007508,0.039971,-0.352027,-0.095156,0.584077,-0.033815,5.013429,-1.459506,-11.472120
00460,743900000,1970,1,1,0,0,39,0,-0.091638,1.193091,8.979138,0.012471,0.063832,-0.411459,-0.100510,0.586954,-0.034248,5.030939,-1.402495,-11.703393
00461,753900000,1970,1,1,0,0,39,0,0.209578,0.844508,9.300715,-0.054583,0.036605,-0.435018,-0.098312,0.584543,-0.026539,5.010178,-1.359838,-11.949310
00462,763900000,1970,1,1,0,0,39,0,0.185854,0.325386,9.166719,-0.028974,-0.181892,-0.405097,-0.115249,0.582737,-0.017910,5.004003,-1.443439,-12.188801
00463,773900000,1970,1,1,0,0,39,0,0.187586,0.037409,7.847921,0.070867,-0.215436,-0.453670,-0.109972,0.582734,-0.014958,5.056156,-1.543662,-12.458548
00464,783900000,1970,1,1,0,0,39,0,0.132579,0.270974,7.548097,0.004630,-0.133904,-0.494644,-0.115249,0.582737,-0.017910,5.071213,-1.595095,-12.746618
00465,793900000,1970,1,1,0,0,39,0,0.041408,0.762496,7.174499,-0.144168,-0.101592,-0.463473,-0.118334,0.585945,-0.010616,5.000653,-1.629800,-13.015586
00466,803900000,1970,1,1,0,0,39,0,-0.295242,1.187049,6.958204,-0.259027,0.004757,-0.422098,-0.126543,0.583405,-0.011311,4.863475,-1.606314,-13.255464
00467,813900000,1970,1,1,0,0,39,0,-0.240498,1.715083,7.381042,-0.306012,0.120425,-0.419901,-0.124280,0.589353,-0.001048,4.698943,-1.517530,-13.489088
00468,823900000,1970,1,1,0,0,39,0,0.099156,1.727602,8.225977,-0.279137,0.181173,-0.415743,-0.129486,0.592098,-0.003982,4.549248,-1.394853,-13.716665
00469,833900000,1970,1,1,0,0,39,0,0.418680,1.559091,9.358428,-0.171584,0.150338,-0.424830,-0.132784,0.587079,0.003258,4.460876,-1.289864,-13.951451
00470,843900000,1970,1,1,0,0,39,0,0.853513,1.272866,10.045895,-0.044216,0.111809,-0.447487,-0.140845,0.584407,0.000062,4.445391,-1.206098,-14.201096
00471,853900000,1970,1,1,0,0,39,0,0.764156,0.860315,10.193220,0.086035,0.007386,-0.451751,-0.148692,0.589961,-0.003080,4.504428,-1.181719,-14.458447
00472,863900000,1970,1,1,0,0,39,0,0.643407,0.428298,9.958698,0.165979,-0.010887,-0.598242,-0.154194,0.592971,-0.001013,4.610874,-1.160739,-14.800248
00473,873900000,1970,1,1,0,0,39,0,0.702923,0.240851,9.759610,0.136967,-0.122968,-0.593482,-0.157415,0.585077,0.003709,4.700778,-1.203399,-15.144162
00474,883900000,1970,1,1,0,0,39,0,0.323426,0.561457,9.134042,0.029110,-0.229849,-0.706203,-0.163278,0.579994,0.008222,4.730792,-1.301426,-15.557645
00475,893900000,1970,1,1,0,0,39,0,0.236342,1.268896,7.975337,-0.133326,-0.338876,-0.613089,-0.160489,0.577051,0.005930,4.667488,-1.466213,-15.923466
00476,903900000,1970,1,1,0,0,39,0,0.721555,0.193776,7.427799,-0.240467,0.252185,-0.545179,-0.174205,0.583139,0.009838,4.541170,-1.297110,-16.220888
00477,913900000,1970,1,1,0,0,39,0,0.229406,0.644578,9.690392,-0.389529,0.199257,-0.637317,-0.179198,0.594110,0.006958,4.329782,-1.155123,-16.576626
00478,923900000,1970,1,1,0,0,39,0,0.897861,1.298120,9.807734,-0.407409,0.082519,-0.572550,-0.185209,0.589159,0.013972,4.106849,-1.083874,-16.899132
00479,933900000,1970,1,1,0,0,39,0,0.917865,1.120959,11.111519,-0.385866,0.191943,-0.492717,-0.177509,0.583737,0.019614,3.894792,-0.954544,-17.173132
00480,943900000,1970,1,1,0,0,39,0,1.082282,1.289094,10.109873,-0.363139,-0.054188,-0.514303,-0.191077,0.589692,0.021021,3.695823,-0.966006,-17.465544
00481,953900000,1970,1,1,0,0,39,0,1.095312,0.873811,12.024817,-0.352789,0.040953,-0.608484,-0.202725,0.576649,0.027530,3.503515,-0.920797,-17.812136
00482,963900000,1970,1,1,0,0,39,0,1.410546,1.326171,10.990656,-0.298180,-0.301044,-0.563795,-0.194292,0.576181,0.023207,3.342551,-1.073907,-18.149199
00483,973900000,1970,1,1,0,0,39,0,1.229050,1.747022,10.122627,-0.293301,-0.296714,-0.548087,-0.210573,0.582204,0.024389,3.185063,-1.225818,-18.470108
00484,983900000,1970,1,1,0,0,39,0,1.431412,1.920864,9.796094,-0.295587,-0.388244,-0.500673,-0.214019,0.577318,0.034129,3.026696,-1.432601,-18.771269
00485,993900000,1970,1,1,0,0,39,0,1.820314,1.852077,9.074157,-0.276084,-0.390907,-0.460510,-0.208724,0.577276,0.034580,2.879946,-1.642903,-19.049040
00486,3900000,1970,1,1,0,0,40,0,1.964042,1.759755,8.783163,-0.290128,-0.347909,-0.391629,-0.219648,0.574803,0.033659,2.724845,-1.831155,-19.281212
00487,13900000,1970,1,1,0,0,40,0,2.126298,0.794910,8.960475,-0.295534,-0.348868,-0.394259,-0.219724,0.577679,0.036178,2.567453,-2.020673,-19.519131
00488,23900000,1970,1,1,0,0,40,0,2.214757,-0.353803,8.955919,-0.224611,-0.338577,-0.542575,-0.224796,0.591528,0.035815,2.454536,-2.201090,-19.838955
00489,33900000,1970,1,1,0,0,40,0,2.498504,-0.079049,8.646456,-0.199162,-0.255904,-0.765172,-0.233734,0.578415,0.042551,2.361971,-2.329368,-20.282246
00490,43900000,1970,1,1,0,0,40,0,2.808395,0.698030,8.717219,-0.324027,-0.154180,-0.825184,-0.242305,0.567779,0.044304,2.199918,-2.399175,-20.762016
00491,53900000,1970,1,1,0,0,40,0,3.270032,0.971781,9.083787,-0.427207,-0.032806,-0.788361,-0.250302,0.573467,0.043662,1.978032,-2.401943,-21.220482
00492,63900000,1970,1,1,0,0,40,0,3.497355,0.998468,9.090099,-0.454331,-0.168788,-0.626643,-0.252802,0.581763,0.043490,1.737094,-2.487410,-21.587524
00493,73900000,1970,1,1,0,0,40,0,3.474442,1.558066,9.973555,-0.442678,-0.121633,-0.520557,-0.258814,0.576811,0.050505,1.500548,-2.549040,-21.889313
00494,83900000,1970,1,1,0,0,40,0,3.941562,0.937511,8.549082,-0.469687,-0.464788,-0.130395,-0.259104,0.571458,0.052971,1.239132,-2.813974,-21.974239
00495,93900000,1970,1,1,0,0,40,0,3.737380,1.366983,8.184230,-0.427215,-0.288159,-0.241264,-0.270399,0.572127,0.059570,1.005390,-2.976892,-22.120047
00496,103900000,1970,1,1,0,0,40,0,4.038210,0.920982,8.174697,-0.312573,-0.135007,-0.269280,-0.267604,0.563565,0.054741,0.838378,-3.052460,-22.284145
00497,113900000,1970,1,1,0,0,40,0,4.107345,0.287843,8.579920,-0.180358,0.031025,-0.390892,-0.270033,0.574604,0.054586,0.750799,-3.032275,-22.514463
00498,123900000,1970,1,1,0,0,40,0,4.047323,0.410076,8.866927,-0.070930,0.056895,-0.445236,-0.262177,0.563430,0.055192,0.727410,-2.997036,-22.772547
00499,133900000,1970,1,1,0,0,40,0,4.074229,0.602974,8.903515,-0.066933,0.111169,-0.431203,-0.272888,0.569186,0.054325,0.705627,-2.930870,-23.019445
00500,143900000,1970,1,1,0,0,40,0,4.039526,0.571698,9.428425,-0.032384,0.099798,-0.415134,-0.292317,0.564439,0.057711,0.702902,-2.871511,-23.260277
00501,153900000,1970,1,1,0,0,40,0,3.828422,0.488901,8.927701,0.011767,0.099541,-0.460721,-0.286601,0.569657,0.055697,0.726535,-2.812207,-23.535772
00502,163900000,1970,1,1,0,0,40,0,4.073269,0.661653,9.813170,-0.019354,0.047934,-0.390733,-0.286666,0.561296,0.053142,0.730156,-2.782745,-23.763968
00503,173900000,1970,1,1,0,0,40,0,3.788341,0.337434,8.811933,0.073107,0.002975,-0.373877,-0.294953,0.561631,0.054966,0.786221,-2.779098,-23.983034
00504,183900000,1970,1,1,0,0,40,0,3.404002,0.784377,9.148991,-0.015947,0.131935,-0.444053,-0.292388,0.561696,0.057693,0.792978,-2.700992,-24.243462
00505,193900000,1970,1,1,0,0,40,0,3.750975,1.183550,9.745881,-0.110086,0.104581,-0.363357,-0.305670,0.573005,0.056635,0.743322,-2.639211,-24.454540
00506,203900000,1970,1,1,0,0,40,0,3.656427,1.217692,10.237403,-0.144987,0.051762,-0.273051,-0.314170,0.565112,0.058405,0.671154,-2.608644,-24.616364
00507,213900000,1970,1,1,0,0,40,0,3.451699,1.156853,10.558739,-0.103965,-0.037313,-0.234337,-0.297808,0.556213,0.054704,0.621499,-2.629657,-24.760071
00508,223900000,1970,1,1,0,0,40,0,3.351863,1.234717,10.555511,-0.013502,-0.125116,-0.215528,-0.298033,0.559221,0.059724,0.623273,-2.700978,-24.886381
00509,233900000,1970,1,1,0,0,40,0,2.986346,1.335526,10.232472,0.067916,-0.190251,-0.164856,-0.319815,0.562637,0.060437,0.670508,-2.809906,-24.983646
00510,243900000,1970,1,1,0,0,40,0,2.636293,1.291061,9.725242,0.125318,-0.192180,-0.116097,-0.308962,0.562367,0.061340,0.749451,-2.920415,-25.060484
00511,253900000,1970,1,1,0,0,40,0,2.376214,1.151654,9.412379,0.106837,-0.148068,-0.086674,-0.314306,0.554008,0.055833,0.817009,-3.005650,-25.114326
00512,263900000,1970,1,1,0,0,40,0,2.072913,1.085774,9.211403,0.061230,-0.066441,-0.101786,-0.311445,0.553808,0.053558,0.858920,-3.044044,-25.179100
00513,273900000,1970,1,1,0,0,40,0,1.969352,1.268662,9.316119,0.041743,0.033133,-0.132266,-0.308590,0.559226,0.053819,0.890544,-3.025042,-25.258280
00514,283900000,1970,1,1,0,0,40,0,1.981477,1.548188,9.709217,0.045974,0.091664,-0.139565,-0.308738,0.559359,0.056320,0.924726,-2.972347,-25.338886
00515,293900000,1970,1,1,0,0,40,0,2.066258,1.750279,10.011094,0.057946,0.133480,-0.131347,-0.311445,0.553808,0.053558,0.965411,-2.895745,-25.414635
00516,303900000,1970,1,1,0,0,40,0,2.069072,1.840490,10.923072,0.099380,0.056981,-0.030554,-0.319661,0.556886,0.055399,1.026904,-2.863968,-25.434879
00517,313900000,1970,1,1,0,0,40,0,1.944227,1.512015,10.611599,0.157483,-0.084812,0.042150,-0.311818,0.556949,0.061078,1.119671,-2.914236,-25.416553
00518,323900000,1970,1,1,0,0,40,0,1.700554,1.267826,10.296912,0.211330,-0.128739,0.050407,-0.311445,0.553808,0.053558,1.243039,-2.989738,-25.391211
00519,333900000,1970,1,1,0,0,40,0,1.559668,0.954505,10.021518,0.232697,-0.150387,0.065936,-0.308590,0.559226,0.053819,1.378156,-3.077935,-25.357983
00520,343900000,1970,1,1,0,0,40,0,1.333018,0.783633,9.646983,0.179105,-0.147987,0.084430,-0.308886,0.559492,0.058821,1.481930,-3.165061,-25.312912
00521,353900000,1970,1,1,0,0,40,0,1.197592,0.802818,9.372648,0.071143,-0.101359,0.096240,-0.314383,0.556884,0.058352,1.523372,-3.225745,-25.261250
00522,363900000,1970,1,1,0,0,40,0,1.264259,0.858310,9.297475,0.009944,-0.040359,0.086400,-0.311593,0.553941,0.056059,1.529971,-3.251431,-25.216349
00523,373900000,1970,1,1,0,0,40,0,1.376760,1.121220,9.439939,0.011472,0.021602,0.078447,-0.302945,0.561701,0.051788,1.537628,-3.241488,-25.174011
00524,383900000,1970,1,1,0,0,40,0,1.381128,1.267057,9.795916,0.004423,0.023989,0.101742,-0.311303,0.559294,0.053594,1.540482,-3.230447,-25.114910
00525,393900000,1970,1,1,0,0,40,0,1.327911,1.137810,9.873285,0.024834,0.013781,0.122850,-0.314010,0.553743,0.050831,1.554375,-3.225701,-25.047472
00526,403900000,1970,1,1,0,0,40,0,1.261907,1.066625,9.891076,0.035788,0.029300,0.115118,-0.316735,0.565047,0.055679,1.574788,-3.212004,-24.985203
00527,413900000,1970,1,1,0,0,40,0,1.127001,1.059217,9.804782,0.003328,0.013825,0.170345,-0.316658,0.562172,0.053160,1.574842,-3.208017,-24.890203
00528,423900000,1970,1,1,0,0,40,0,1.065625,0.832980,9.723330,0.002213,0.042159,0.177721,-0.316505,0.556421,0.048122,1.574012,-3.187931,-24.790773
00529,433900000,1970,1,1,0,0,40,0,0.983895,0.705745,9.770260,0.019658,0.043151,0.175811,-0.303312,0.559224,0.056772,1.583265,-3.167268,-24.692745
00530,443900000,1970,1,1,0,0,40,0,1.019715,0.650848,9.851704,0.017411,0.035343,0.179868,-0.310794,0.567257,0.048645,1.591119,-3.151057,-24.589071
00531,453900000,1970,1,1,0,0,40,0,1.019304,0.553864,10.001971,0.000490,0.029963,0.170891,-0.310653,0.572742,0.048681,1.589588,-3.137848,-24.492502
00532,463900000,1970,1,1,0,0,40,0,0.935857,0.461250,10.015966,0.030644,0.004512,0.144228,-0.302874,0.564444,0.051806,1.606190,-3.138797,-24.411266
00533,473900000,1970,1,1,0,0,40,0,0.936307,0.638338,9.961137,0.048191,0.006848,0.114409,-0.300226,0.556015,0.049477,1.633770,-3.137944,-24.346661
00534,483900000,1970,1,1,0,0,40,0,0.859006,0.940573,9.895778,0.040905,0.008439,0.123607,-0.299948,0.572605,0.052085,1.656880,-3.136382,-24.277464
00535,493900000,1970,1,1,0,0,40,0,0.767331,0.935110,9.740694,0.034587,0.017830,0.152235,-0.308377,0.567455,0.053873,1.675457,-3.129902,-24.190147
00536,503900000,1970,1,1,0,0,40,0,0.732210,0.786692,9.646728,0.039913,0.043657,0.157265,-0.294587,0.564108,0.049982,1.696929,-3.108842,-24.102770
00537,513900000,1970,1,1,0,0,40,0,0.700550,0.678682,9.799686,0.019206,0.061844,0.145723,-0.302661,0.572672,0.051859,1.706900,-3.077097,-24.018377
00538,523900000,1970,1,1,0,0,40,0,0.813343,0.671894,10.025973,-0.025014,0.053769,0.138521,-0.302803,0.567187,0.051824,1.691808,-3.049908,-23.940071
00539,533900000,1970,1,1,0,0,40,0,0.827161,0.601212,10.179729,-0.050028,0.023772,0.137275,-0.294226,0.572204,0.047535,1.662468,-3.039862,-23.863594
00540,543900000,1970,1,1,0,0,40,0,0.766111,0.542550,10.086674,-0.014562,0.006338,0.071156,-0.300013,0.564243,0.049531,1.655465,-3.038598,-23.822672
00541,553900000,1970,1,1,0,0,40,0,0.610432,0.579154,10.083983,0.015130,-0.076868,0.123792,-0.294664,0.566984,0.052501,1.663921,-3.085952,-23.755915
00542,563900000,1970,1,1,0,0,40,0,0.470121,0.341982,9.800969,0.049499,-0.110003,0.077958,-0.289019,0.569459,0.050469,1.693447,-3.151480,-23.714218
00543,573900000,1970,1,1,0,0,40,0,0.386548,0.379790,9.639792,0.097680,-0.095746,0.034476,-0.291880,0.569659,0.052744,1.751889,-3.208089,-23.696142
00544,583900000,1970,1,1,0,0,40,0,0.257625,0.555498,9.502234,0.096386,-0.072717,-0.005936,-0.294078,0.572071,0.045034,1.810855,-3.250849,-23.702314
00545,593900000,1970,1,1,0,0,40,0,0.308235,0.853410,9.371112,0.072503,-0.019052,-0.025256,-0.300025,0.575480,0.054604,1.856708,-3.262517,-23.718771
00546,603900000,1970,1,1,0,0,40,0,0.216022,0.913160,9.499354,0.061984,0.043981,-0.061833,-0.297371,0.561433,0.049738,1.897655,-3.237420,-23.756144
00547,613900000,1970,1,1,0,0,40,0,0.206593,0.865767,9.462139,0.038006,0.039921,-0.033893,-0.299794,0.566854,0.047048,1.923945,-3.215163,-23.777765
00548,623900000,1970,1,1,0,0,40,0,0.328334,1.162869,9.628406,-0.017132,0.070258,-0.050118,-0.291584,0.569394,0.047743,1.919115,-3.175192,-23.807457
00549,633900000,1970,1,1,0,0,40,0,0.370665,1.237541,9.902534,-0.084418,0.066316,-0.013170,-0.297158,0.569661,0.049792,1.874553,-3.138108,-23.813669
00550,643900000,1970,1,1,0,0,40,0,0.322042,0.962975,9.953228,-0.106785,0.032567,-0.001413,-0.289161,0.563973,0.050434,1.816841,-3.120635,-23.815893
00551,653900000,1970,1,1,0,0,40,0,0.245973,0.830647,9.739268,-0.095809,0.012070,-0.048852,-0.294735,0.564241,0.052483,1.766911,-3.114005,-23.844358
00552,663900000,1970,1,1,0,0,40,0,0.211576,1.025205,9.678685,-0.045486,0.056802,-0.159099,-0.297152,0.564043,0.047255,1.749176,-3.079883,-23.936960
00553,673900000,1970,1,1,0,0,40,0,0.336633,1.255992,9.768900,-0.018969,0.011031,-0.077481,-0.297377,0.567051,0.052275,1.744137,-3.073410,-23.983526
00554,683900000,1970,1,1,0,0,40,0,0.347908,1.220519,9.553433,-0.012101,-0.023080,-0.040508,-0.297300,0.564176,0.049756,1.741932,-3.087094,-24.008976
00555,693900000,1970,1,1,0,0,40,0,0.342646,0.949381,9.465066,0.033767,-0.016242,0.016009,-0.305220,0.566989,0.046596,1.764257,-3.097855,-24.002159
00556,703900000,1970,1,1,0,0,40,0,0.237694,0.526280,9.367353,0.062964,-0.012697,0.011883,-0.308164,0.575683,0.053927,1.803435,-3.106564,-23.999178
00557,713900000,1970,1,1,0,0,40,0,0.154680,0.234685,9.219307,0.059425,0.038157,-0.072165,-0.291874,0.564041,0.050208,1.843128,-3.084590,-24.042677
00558,723900000,1970,1,1,0,0,40,0,0.030165,0.470524,9.415478,-0.061268,0.082739,-0.042556,-0.292098,0.567049,0.055227,1.812678,-3.037522,-24.065302
00559,733900000,1970,1,1,0,0,40,0,0.048769,0.407328,9.471745,-0.252865,0.096838,-0.024406,-0.297448,0.564309,0.052257,1.671878,-2.982736,-24.078035
00560,743900000,1970,1,1,0,0,40,0,0.150746,0.795492,9.667933,-0.309664,0.138705,-0.049264,-0.302803,0.567187,0.051824,1.499223,-2.903673,-24.106487
00561,753900000,1970,1,1,0,0,40,0,0.319902,1.168659,9.953321,-0.380480,0.131604,-0.032024,-0.292246,0.567182,0.057728,1.285480,-2.829018,-24.125868
00562,763900000,1970,1,1,0,0,40,0,0.500866,1.169580,10.099811,-0.372736,0.106647,-0.047992,-0.303317,0.564842,0.059308,1.076622,-2.768432,-24.152027
00563,773900000,1970,1,1,0,0,40,0,0.484261,1.361539,10.260376,-0.266689,0.032883,-0.000998,-0.300309,0.564509,0.054532,0.927268,-2.750769,-24.155767
00564,783900000,1970,1,1,0,0,40,0,0.451724,1.065808,9.929230,-0.189196,-0.045857,0.006362,-0.303022,0.564577,0.054307,0.822149,-2.778227,-24.154490
00565,793900000,1970,1,1,0,0,40,0,0.456712,1.213198,9.710611,-0.052020,-0.036914,-0.034385,-0.302732,0.569929,0.051841,0.796763,-2.800246,-24.177113
00566,803900000,1970,1,1,0,0,40,0,0.407568,1.227895,9.597583,-0.011053,-0.029387,-0.028261,-0.297460,0.575545,0.057331,0.794677,-2.817974,-24.195152
00567,813900000,1970,1,1,0,0,40,0,0.408812,1.258023,9.636693,-0.013789,0.041507,-0.131570,-0.284550,0.567377,0.065908,0.793895,-2.794206,-24.270203
00568,823900000,1970,1,1,0,0,40,0,0.561865,1.388163,10.255386,-0.001185,0.031441,-0.059266,-0.295184,0.570258,0.062522,0.798298,-2.776727,-24.302376
00569,833900000,1970,1,1,0,0,40,0,0.633680,1.389740,10.369374,-0.086357,-0.039284,-0.006911,-0.295403,0.567648,0.065005,0.752485,-2.800306,-24.308725
00570,843900000,1970,1,1,0,0,40,0,0.669914,1.623347,10.158588,-0.109532,-0.060573,-0.013023,-0.300675,0.562032,0.059516,0.693581,-2.836050,-24.319002
00571,853900000,1970,1,1,0,0,40,0,0.573762,1.873651,9.689890,-0.160742,-0.075195,-0.007452,-0.295397,0.562029,0.062469,0.605199,-2.880279,-24.328049
00572,863900000,1970,1,1,0,0,40,0,0.527668,2.299587,9.172038,-0.166471,-0.041812,-0.023357,-0.297891,0.564707,0.059760,0.513989,-2.905224,-24.343693
00573,873900000,1970,1,1,0,0,40,0,0.673102,2.587286,8.735477,-0.202011,0.067667,-0.120704,-0.303755,0.559622,0.064274,0.405215,-2.867033,-24.415089
00574,883900000,1970,1,1,0,0,40,0,0.615717,3.203585,9.197641,-0.165466,0.165220,-0.141451,-0.303394,0.567718,0.061827,0.317901,-2.773072,-24.500483
00575,893900000,1970,1,1,0,0,40,0,0.915553,3.592556,9.608746,-0.151908,0.196416,-0.094507,-0.298341,0.570724,0.069799,0.236952,-2.661407,-24.556631
00576,903900000,1970,1,1,0,0,40,0,1.096649,3.996593,10.268737,-0.134331,0.227488,-0.160174,-0.298554,0.562495,0.069746,0.167695,-2.531819,-24.648722
00577,913900000,1970,1,1,0,0,40,0,1.187140,4.366600,10.762783,-0.058668,0.173299,-0.166842,-0.289971,0.561894,0.062920,0.141824,-2.433413,-24.746820
00578,923900000,1970,1,1,0,0,40,0,0.970959,4.278107,10.186605,-0.042382,0.144768,-0.227195,-0.295764,0.559552,0.067453,0.126604,-2.351213,-24.876574
00579,933900000,1970,1,1,0,0,40,0,0.877147,4.727625,9.998379,0.114263,0.081117,-0.386076,-0.303968,0.551394,0.064221,0.204742,-2.305264,-25.100895
00580,943900000,1970,1,1,0,0,40,0,0.866484,5.359708,9.266740,0.237622,0.103560,-0.357847,-0.319738,0.559762,0.057918,0.352766,-2.246224,-25.312744
00581,953900000,1970,1,1,0,0,40,0,0.967073,5.231480,9.086720,0.195996,0.177753,-0.184152,-0.308738,0.559359,0.056320,0.472875,-2.145010,-25.427401
00582,963900000,1970,1,1,0,0,40,0,0.896046,4.511756,9.389446,0.198501,0.286431,-0.076327,-0.311593,0.553941,0.056059,0.591939,-1.981683,-25.473089
00583,973900000,1970,1,1,0,0,40,0,0.754168,4.471879,9.426973,0.117349,0.322978,-0.094245,-0.311528,0.562302,0.058613,0.664754,-1.797348,-25.531794
00584,983900000,1970,1,1,0,0,40,0,0.819136,4.716744,9.747665,0.056834,0.334405,-0.037792,-0.316865,0.548325,0.050570,0.701786,-1.606734,-25.555792
00585,993900000,1970,1,1,0,0,40,0,0.914930,4.455491,10.438633,0.053751,0.307508,0.058884,-0.313945,0.562104,0.053386,0.735583,-1.432425,-25.530590
00586,3900000,1970,1,1,0,0,41,0,1.408124,4.552337,10.355570,-0.010995,0.237506,0.064673,-0.311161,0.564779,0.053629,0.732324,-1.298097,-25.497114
00587,13900000,1970,1,1,0,0,41,0,0.124510,4.339608,10.827961,0.055388,0.169275,0.160722,-0.308732,0.553741,0.053784,0.766023,-1.203578,-25.408365
00588,23900000,1970,1,1,0,0,41,0,1.123910,4.302646,10.588634,0.067885,0.155009,0.202823,-0.300084,0.561501,0.049513,0.806584,-1.117731,-25.298704
00589,33900000,1970,1,1,0,0,41,0,0.959848,4.565051,11.287032,0.044989,0.099145,0.169482,-0.319300,0.564982,0.052952,0.834557,-1.063515,-25.203127
00590,43900000,1970,1,1,0,0,41,0,0.663360,4.357371,11.762456,0.235470,-0.067963,0.304364,-0.302430,0.564046,0.044303,0.970316,-1.106788,-25.043133
00591,53900000,1970,1,1,0,0,41,0,0.714922,4.302724,10.958428,0.259344,-0.134039,0.518915,-0.305800,0.556283,0.051526,1.117114,-1.190275,-24.751728
00592,63900000,1970,1,1,0,0,41,0,0.510414,3.978240,10.675552,0.225776,-0.152385,0.641992,-0.291803,0.566784,0.050226,1.242750,-1.286696,-24.397697
00593,73900000,1970,1,1,0,0,41,0,0.620539,3.612696,10.510455,0.423176,-0.220764,0.629303,-0.280436,0.568858,0.043644,1.480947,-1.422995,-24.043509
00594,83900000,1970,1,1,0,0,41,0,0.854905,4.308893,9.695345,0.448597,-0.151892,0.671613,-0.285424,0.574213,0.038226,1.732353,-1.521988,-23.662245
00595,93900000,1970,1,1,0,0,41,0,0.697660,4.334273,9.778998,0.386576,-0.169377,0.810733,-0.285720,0.574479,0.043228,1.945384,-1.635332,-23.208326
00596,103900000,1970,1,1,0,0,41,0,0.746477,3.843571,9.542678,0.367667,-0.121155,0.881929,-0.282640,0.576888,0.038470,2.145582,-1.724331,-22.716780
00597,113900000,1970,1,1,0,0,41,0,0.988491,3.818978,9.692159,0.365412,-0.098091,0.849558,-0.266078,0.587454,0.039896,2.344343,-1.801181,-22.243950
00598,123900000,1970,1,1,0,0,41,0,0.951143,4.116237,9.626837,0.310349,-0.079038,0.945113,-0.263069,0.587121,0.035120,2.509176,-1.870667,-21.706400
00599,133900000,1970,1,1,0,0,41,0,0.971626,3.793103,9.726215,0.201791,-0.106594,1.037930,-0.257128,0.589330,0.028087,2.609347,-1.959729,-21.121168
00600,143900000,1970,1,1,0,0,41,0,0.970698,3.204113,9.874407,0.083106,-0.083195,1.147650,-0.240199,0.602374,0.024529,2.638454,-2.038988,-20.473049
00601,153900000,1970,1,1,0,0,41,0,0.656923,3.578892,9.479668,0.011649,-0.073109,1.118940,-0.235140,0.599761,0.029964,2.626344,-2.111519,-19.831945
00602,163900000,1970,1,1,0,0,41,0,0.409494,3.843652,9.179668,-0.033121,-0.034390,1.108499,-0.237273,0.610534,0.024808,2.588105,-2.161542,-19.201014
00603,173900000,1970,1,1,0,0,41,0,0.319201,4.032261,8.949270,-0.124029,0.032538,1.162878,-0.220776,0.612739,0.023680,2.496207,-2.174089,-18.541471
00604,183900000,1970,1,1,0,0,41,0,0.538725,4.095016,8.600717,-0.035241,0.066039,1.082695,-0.214995,0.626318,0.024220,2.456885,-2.164472,-17.919622
00605,193900000,1970,1,1,0,0,41,0,0.609700,4.489302,8.740037,0.085078,0.141036,1.106756,-0.214770,0.623310,0.019201,2.486281,-2.112457,-17.281267
00606,203900000,1970,1,1,0,0,41,0,0.406448,4.243009,8.544485,0.020293,0.119646,1.267967,-0.211844,0.631470,0.019480,2.475708,-2.077065,-16.558359
00607,213900000,1970,1,1,0,0,41,0,-0.165226,2.962299,8.221965,0.068303,0.159370,1.377621,-0.195335,0.622438,0.013278,2.490955,-2.021767,-15.773243
00608,223900000,1970,1,1,0,0,41,0,-0.499170,2.129539,7.962479,0.118096,0.314382,1.386459,-0.181338,0.632939,0.011978,2.535822,-1.878241,-14.974791
00609,233900000,1970,1,1,0,0,41,0,-0.542104,1.870870,8.444201,-0.052490,0.426964,1.391144,-0.189039,0.638362,0.006334,2.485248,-1.670173,-14.165414
00610,243900000,1970,1,1,0,0,41,0,-0.505058,1.524606,9.674109,-0.128083,0.467295,1.378373,-0.156115,0.640028,0.004060,2.394639,-1.437795,-13.364628
00611,253900000,1970,1,1,0,0,41,0,-0.094396,1.631950,10.663816,-0.155700,0.379967,1.394536,-0.153189,0.648189,0.004339,2.290977,-1.254174,-12.549232
00612,263900000,1970,1,1,0,0,41,0,0.065516,1.596732,10.582958,-0.015870,0.201360,1.426706,-0.147692,0.650797,0.004808,2.268976,-1.172904,-11.726133
00613,273900000,1970,1,1,0,0,41,0,-0.168179,1.797926,9.317951,0.233516,0.073682,1.393638,-0.128405,0.650058,0.001387,2.390931,-1.164801,-10.927702
00614,283900000,1970,1,1,0,0,41,0,-0.171917,2.143205,7.178786,0.375679,0.153914,1.481553,-0.133169,0.652405,-0.009050,2.593742,-1.114951,-10.068579
00615,293900000,1970,1,1,0,0,41,0,-1.472895,1.537173,6.816346,0.305346,0.299568,1.626197,-0.119976,0.655208,-0.000401,2.755901,-0.988790,-9.135091
00616,303900000,1970,1,1,0,0,41,0,-2.228635,-0.204061,6.219827,0.089389,0.373979,1.669156,-0.105671,0.654207,-0.011777,2.796310,-0.822773,-8.171009
00617,313900000,1970,1,1,0,0,41,0,-2.264904,-1.163643,6.905204,-0.279359,0.693181,1.529892,-0.097313,0.656614,-0.013583,2.630608,-0.469143,-7.275497
00618,323900000,1970,1,1,0,0,41,0,-1.631328,-0.419900,9.435513,-0.557593,0.851179,1.399253,-0.089109,0.664773,-0.010351,2.312030,-0.018127,-6.454037
00619,333900000,1970,1,1,0,0,41,0,-1.054968,0.497076,12.046543,-0.574557,0.777793,1.437757,-0.075620,0.667310,-0.006703,1.989963,0.394624,-5.614657
00620,343900000,1970,1,1,0,0,41,0,-0.913644,0.867147,13.156247,-0.311579,0.540106,1.500437,-0.067398,0.658614,-0.011081,1.823932,0.673735,-4.742621
00621,353900000,1970,1,1,0,0,41,0,-0.784011,0.630972,12.962125,0.052136,0.223426,1.559461,-0.055818,0.668916,-0.017610,1.869468,0.771203,-3.845622
00622,363900000,1970,1,1,0,0,41,0,-0.829728,0.340226,10.869596,0.403956,0.042953,1.576033,-0.048110,0.657875,-0.014503,2.117359,0.762737,-2.940833
00623,373900000,1970,1,1,0,0,41,0,-1.126873,-0.064456,9.009080,0.390346,0.039580,1.614247,-0.047531,0.668581,-0.019433,2.357509,0.747519,-2.017018
00624,383900000,1970,1,1,0,0,41,0,-1.955425,-0.747115,7.702240,0.277558,0.135553,1.617071,-0.025755,0.670783,-0.017609,2.533169,0.783593,-1.095096
00625,393900000,1970,1,1,0,0,41,0,-3.162406,-1.684670,7.251723,0.106757,0.358806,1.490042,-0.028616,0.670983,-0.015334,2.611649,0.948984,-0.230943
00626,403900000,1970,1,1,0,0,41,0,-2.602017,-0.320759,7.771774,-0.241884,0.663377,1.362695,-0.014465,0.675733,-0.021672,2.492784,1.291946,0.558980
00627,413900000,1970,1,1,0,0,41,0,-2.414817,0.231512,11.109959,-0.598352,0.773428,1.435913,0.001453,0.667232,-0.017870,2.176046,1.699412,1.397035
00628,423900000,1970,1,1,0,0,41,0,-1.796933,0.932969,13.413516,-0.331535,0.650340,1.447986,0.001672,0.669842,-0.020353,2.017781,2.039748,2.241358
00629,433900000,1970,1,1,0,0,41,0,-1.584584,1.768840,14.268801,0.100483,0.334482,1.517968,0.023442,0.677662,-0.015993,2.111856,2.198021,3.112920
00630,443900000,1970,1,1,0,0,41,0,-1.438167,0.595765,13.471009,0.426565,0.009411,1.662825,0.026450,0.677329,-0.020769,2.396706,2.164272,4.068026
00631,453900000,1970,1,1,0,0,41,0,-1.766101,-0.397613,11.337054,0.766292,-0.147111,1.613789,0.032545,0.673788,-0.032840,2.873573,2.035691,4.985145
00632,463900000,1970,1,1,0,0,41,0,-2.311432,-0.852039,9.576727,0.841494,-0.129762,1.556794,0.048977,0.667631,-0.036523,3.390290,1.910802,5.867732
00633,473900000,1970,1,1,0,0,41,0,-3.122870,-1.103802,7.983384,0.592138,0.017243,1.540092,0.062762,0.669903,-0.037877,3.762647,1.863852,6.749122
00634,483900000,1970,1,1,0,0,41,0,-3.644309,-1.179838,7.961482,0.034050,0.280740,1.493200,0.076836,0.677528,-0.041696,3.815065,1.966100,7.614328
00635,493900000,1970,1,1,0,0,41,0,-3.453175,-0.438052,9.623886,-0.233252,0.474884,1.417533,0.073537,0.672508,-0.034455,3.715398,2.182583,8.444075
00636,503900000,1970,1,1,0,0,41,0,-2.806265,0.511545,11.470049,-0.300843,0.483745,1.431795,0.095532,0.677321,-0.035114,3.580394,2.405152,9.277083
00637,513900000,1970,1,1,0,0,41,0,-2.458519,0.748288,12.487928,-0.251342,0.347928,1.499495,0.112035,0.673907,-0.038780,3.477942,2.549601,10.149031
00638,523900000,1970,1,1,0,0,41,0,-2.638885,0.385399,12.133756,-0.083064,0.186493,1.533438,0.117822,0.681867,-0.040775,3.474007,2.601387,11.035600
00639,533900000,1970,1,1,0,0,41,0,-2.648333,-0.086709,11.173112,0.028264,0.104333,1.531176,0.125311,0.668216,-0.035186,3.534028,2.605733,11.915085
00640,543900000,1970,1,1,0,0,41,0,-2.516236,-0.594888,10.193109,0.086700,0.081076,1.505904,0.133888,0.673234,-0.039474,3.626772,2.596540,12.779684
00641,553900000,1970,1,1,0,0,41,0,-2.793845,-1.569903,10.164723,0.345775,0.034974,1.394132,0.139178,0.661995,-0.041595,3.864630,2.562672,13.578047
00642,563900000,1970,1,1,0,0,41,0,-1.999883,-0.735251,7.937868,0.328031,0.136198,1.358577,0.139462,0.672966,-0.041524,4.091454,2.584851,14.359969
00643,573900000,1970,1,1,0,0,41,0,-2.700382,-1.802008,9.251088,-0.255896,0.224552,1.449864,0.158158,0.672758,-0.034942,3.986810,2.652952,15.195908
00644,583900000,1970,1,1,0,0,41,0,-2.629013,-2.436606,9.936070,-0.183433,0.238781,1.308075,0.169164,0.666737,-0.039076,3.921006,2.736158,15.954081
00645,593900000,1970,1,1,0,0,41,0,-2.457504,-1.711176,10.107878,-0.238963,0.181278,1.244382,0.177309,0.660916,-0.040936,3.822371,2.790054,16.673491
00646,603900000,1970,1,1,0,0,41,0,-2.186886,-1.956114,10.361845,-0.240357,0.078648,1.252584,0.188304,0.666131,-0.039997,3.723237,2.786212,17.393415
00647,613900000,1970,1,1,0,0,41,0,-1.979964,-2.489683,9.641120,-0.077575,-0.009399,1.198188,0.182806,0.663523,-0.040466,3.715325,2.734736,18.078899
00648,623900000,1970,1,1,0,0,41,0,-1.652179,-3.050723,8.693512,0.012306,-0.001827,1.114063,0.201508,0.657697,-0.036421,3.755984,2.690492,18.714899
00649,633900000,1970,1,1,0,0,41,0,-1.497977,-3.815045,7.985453,0.066773,0.054439,1.003182,0.209654,0.651876,-0.038280,3.824678,2.682101,19.291821
00650,643900000,1970,1,1,0,0,41,0,-1.746705,-4.962114,7.920998,0.246128,0.131074,0.743696,0.212727,0.659904,-0.040502,3.989384,2.726476,19.722881
00651,653900000,1970,1,1,0,0,41,0,-1.416407,-4.101195,7.465728,0.055600,0.306581,0.548839,0.226222,0.656824,-0.039391,4.040481,2.878157,20.048906
00652,663900000,1970,1,1,0,0,41,0,-1.621877,-4.485965,8.033761,-0.306679,0.369723,0.438246,0.221091,0.656693,-0.044844,3.881797,3.070665,20.315090
00653,673900000,1970,1,1,0,0,41,0,-1.369965,-3.857156,8.891047,-0.279372,0.455724,0.173192,0.207301,0.660040,-0.040953,3.731397,3.323113,20.431238
00654,683900000,1970,1,1,0,0,41,0,-0.869745,-2.291477,9.885241,-0.324461,0.412484,0.104790,0.223136,0.660033,-0.032096,3.553104,3.553649,20.505337
00655,693900000,1970,1,1,0,0,41,0,-0.708215,-1.525911,10.523693,-0.253310,0.273162,0.135276,0.214849,0.660368,-0.030272,3.416582,3.703721,20.592958
00656,703900000,1970,1,1,0,0,41,0,-0.746941,-0.830935,10.148926,-0.029873,0.148429,0.174884,0.223059,0.662908,-0.029577,3.409401,3.781180,20.697960
00657,713900000,1970,1,1,0,0,41,0,-0.786154,-0.812225,9.227562,0.195804,0.076074,0.234165,0.220128,0.660366,-0.027320,3.533701,3.815124,20.835024
00658,723900000,1970,1,1,0,0,41,0,-0.838518,-1.446146,8.287105,0.249237,0.126661,0.251851,0.228497,0.651536,-0.034199,3.689515,3.877017,20.983858
00659,733900000,1970,1,1,0,0,41,0,-0.963092,-2.135237,8.363099,0.147481,0.231764,0.202946,0.222852,0.649061,-0.032167,3.785606,4.000531,21.109205
00660,743900000,1970,1,1,0,0,41,0,-1.036001,-2.555070,8.693011,0.057852,0.323966,0.075362,0.226068,0.662575,-0.034353,3.825682,4.181448,21.164635
00661,753900000,1970,1,1,0,0,41,0,-0.905283,-2.073836,9.607031,-0.082883,0.368270,-0.034214,0.239267,0.659760,-0.028241,3.780706,4.391875,21.158979
00662,763900000,1970,1,1,0,0,41,0,-0.724939,-1.552980,10.347281,-0.103983,0.315807,-0.099957,0.228645,0.651403,-0.036700,3.720488,4.574796,21.114035
00663,773900000,1970,1,1,0,0,41,0,-0.614687,-0.917429,10.671874,-0.059016,0.240573,-0.115149,0.233924,0.651401,-0.033747,3.684926,4.715209,21.056828
00664,783900000,1970,1,1,0,0,41,0,-0.539333,-0.662518,10.957456,-0.008345,0.143429,-0.113066,0.233409,0.649056,-0.026263,3.678068,4.799994,20.997471
00665,793900000,1970,1,1,0,0,41,0,-0.521188,-0.595798,10.900153,0.062720,0.054697,-0.130303,0.233995,0.654144,-0.033730,3.710743,4.834696,20.924892
00666,803900000,1970,1,1,0,0,41,0,-0.666893,-0.574577,10.687786,0.079550,-0.001569,-0.165042,0.228409,0.665648,-0.026607,3.751166,4.838568,20.830210
00667,813900000,1970,1,1,0,0,41,0,-0.717458,-0.348647,10.568998,0.060480,-0.037814,-0.215102,0.220204,0.657490,-0.029839,3.778100,4.823664,20.705244
00668,823900000,1970,1,1,0,0,41,0,-0.782625,0.075493,10.623627,-0.000244,-0.080495,-0.226736,0.222994,0.654547,-0.032132,3.769616,4.784813,20.572054
00669,833900000,1970,1,1,0,0,41,0,-0.885759,0.482361,10.353909,-0.021927,-0.116917,-0.251056,0.220429,0.654482,-0.034858,3.747548,4.726038,20.423782
00670,843900000,1970,1,1,0,0,41,0,-0.789544,0.984016,10.365615,-0.066355,-0.124280,-0.245775,0.222776,0.651937,-0.029649,3.700408,4.662766,20.278215
00671,853900000,1970,1,1,0,0,41,0,-0.690063,1.241064,10.478098,-0.061019,-0.161875,-0.242295,0.212207,0.663178,-0.030480,3.656568,4.577769,20.133461
00672,863900000,1970,1,1,0,0,41,0,-0.720710,1.469261,10.257788,-0.015789,-0.186586,-0.252331,0.217781,0.662910,-0.032530,3.638356,4.478912,19.981693
00673,873900000,1970,1,1,0,0,41,0,-0.467705,1.723390,10.167074,0.007649,-0.188982,-0.248099,0.201290,0.655087,-0.033938,3.634031,4.378528,19.832712
00674,883900000,1970,1,1,0,0,41,0,-0.283779,1.976293,10.438805,0.027165,-0.197697,-0.229333,0.206793,0.652077,-0.036005,3.641947,4.272469,19.693779
00675,893900000,1970,1,1,0,0,41,0,-0.170261,1.978968,10.558244,0.095152,-0.246588,-0.214442,0.207006,0.660305,-0.035951,3.689612,4.137996,19.561983
00676,903900000,1970,1,1,0,0,41,0,-0.187141,1.901073,10.212633,0.143735,-0.291471,-0.200199,0.209429,0.654885,-0.033260,3.765913,3.977464,19.436403
00677,913900000,1970,1,1,0,0,41,0,-0.250504,1.847651,9.818332,0.128106,-0.304239,-0.183338,0.204517,0.657364,-0.041197,3.834246,3.809164,19.320000
00678,923900000,1970,1,1,0,0,41,0,-0.135097,1.820408,9.654654,0.128074,-0.296885,-0.169623,0.204003,0.655020,-0.033712,3.903419,3.644667,19.211273
00679,933900000,1970,1,1,0,0,41,0,-0.035957,1.857518,9.492886,0.141247,-0.290029,-0.142779,0.204736,0.659974,-0.043680,3.981412,3.483183,19.118155
00680,943900000,1970,1,1,0,0,41,0,0.139380,1.806459,9.582396,0.146633,-0.271833,-0.111592,0.196662,0.668538,-0.041803,4.063848,3.330973,19.043356
00681,953900000,1970,1,1,0,0,41,0,0.309103,1.653500,9.687443,0.174006,-0.284729,-0.087928,0.188605,0.660247,-0.047535,4.162904,3.170523,18.981058
00682,963900000,1970,1,1,0,0,41,0,0.278343,1.537472,9.401444,0.179186,-0.285147,-0.071503,0.194031,0.660112,-0.047084,4.265596,3.009255,18.927919
00683,973900000,1970,1,1,0,0,41,0,0.128679,1.426208,9.030489,0.171887,-0.263048,-0.072611,0.204955,0.662584,-0.046163,4.364267,2.860770,18.875193
00684,983900000,1970,1,1,0,0,41,0,0.021484,1.399120,8.847077,0.170498,-0.204615,-0.081972,0.194179,0.659979,-0.049585,4.462115,2.746177,18.819656
00685,993900000,1970,1,1,0,0,41,0,0.038439,1.463035,9.012705,0.176873,-0.154811,-0.085971,0.197188,0.659646,-0.054361,4.563697,2.660286,18.763306
00686,3900000,1970,1,1,0,0,42,0,0.100288,1.453250,9.212452,0.209294,-0.128849,-0.078875,0.197259,0.662389,-0.054343,4.684176,2.589020,18.712345
00687,13900000,1970,1,1,0,0,42,0,0.134881,1.439177,9.253460,0.242280,-0.111654,-0.076592,0.197478,0.664999,-0.056826,4.823699,2.527580,18.663300
00688,23900000,1970,1,1,0,0,42,0,0.196150,1.428666,9.340130,0.239822,-0.094442,-0.066235,0.199966,0.667940,-0.051580,4.962152,2.475582,18.620844
00689,33900000,1970,1,1,0,0,42,0,0.278627,1.437002,9.412237,0.207382,-0.092097,-0.052044,0.194552,0.656838,-0.057105,5.082410,2.424309,18.586588
00690,43900000,1970,1,1,0,0,42,0,0.328202,1.513207,9.444662,0.177743,-0.093238,-0.031358,0.200191,0.664931,-0.056600,5.186203,2.371386,18.563868
00691,53900000,1970,1,1,0,0,42,0,0.253405,1.521193,9.149918,0.161806,-0.096228,-0.008413,0.194776,0.653830,-0.062125,5.281415,2.315606,18.554155
00692,63900000,1970,1,1,0,0,42,0,0.148310,1.414647,8.873462,0.139153,-0.069557,0.009956,0.203418,0.667208,-0.063859,5.364126,2.274074,18.556110
00693,73900000,1970,1,1,0,0,42,0,0.116774,1.216552,8.738619,0.137531,-0.022891,0.008632,0.200345,0.659180,-0.061638,5.445984,2.259242,18.559959
00694,83900000,1970,1,1,0,0,42,0,-0.003974,1.125785,8.880857,0.096186,0.023268,0.010311,0.194623,0.659581,-0.057087,5.504281,2.270637,18.567146
00695,93900000,1970,1,1,0,0,42,0,-0.015035,1.078093,9.190020,0.078231,0.054599,-0.011287,0.189409,0.667945,-0.057485,5.551867,2.301075,18.563543
00696,103900000,1970,1,1,0,0,42,0,0.106645,1.444016,9.421126,0.084668,0.071615,-0.018754,0.189859,0.661928,-0.067525,5.603006,2.341632,18.556538
00697,113900000,1970,1,1,0,0,42,0,0.166290,1.543363,9.732507,0.117302,0.070196,-0.001021,0.203288,0.650486,-0.068968,5.673256,2.380408,18.559883
00698,123900000,1970,1,1,0,0,42,0,0.190238,1.556037,9.921392,0.146530,0.055174,0.000643,0.200640,0.658915,-0.066639,5.760273,2.410551,18.564001
00699,133900000,1970,1,1,0,0,42,0,0.041043,1.487333,9.919294,0.155474,0.028667,0.011027,0.198081,0.653231,-0.071903,5.852584,2.424946,18.571896
00700,143900000,1970,1,1,0,0,42,0,-0.095031,1.254835,9.725596,0.155049,0.014398,0.013247,0.197708,0.656372,-0.064382,5.944675,2.431070,18.580236
00701,153900000,1970,1,1,0,0,42,0,-0.266043,1.027248,9.599406,0.119307,0.018025,0.018187,0.189569,0.656575,-0.065059,6.016415,2.438958,18.591660
00702,163900000,1970,1,1,0,0,42,0,-0.343709,0.797175,9.590504,0.099727,0.030605,0.003553,0.198146,0.661593,-0.069348,6.076604,2.454870,18.595192
00703,173900000,1970,1,1,0,0,42,0,-0.170962,0.723158,9.892769,0.100290,0.035548,-0.017047,0.200717,0.656039,-0.069158,6.136631,2.474885,18.587818
00704,183900000,1970,1,1,0,0,42,0,-0.015614,0.771472,10.137380,0.133410,0.020407,-0.037321,0.200711,0.661658,-0.066622,6.215082,2.487539,18.567995
00705,193900000,1970,1,1,0,0,42,0,0.054112,0.840844,10.294472,0.154955,-0.017494,-0.031107,0.187223,0.659120,-0.070269,6.305921,2.478237,18.549170
00706,203900000,1970,1,1,0,0,42,0,-0.037963,0.822503,10.202018,0.206272,-0.046047,-0.025003,0.187146,0.661996,-0.067750,6.426221,2.452305,18.531488
00707,213900000,1970,1,1,0,0,42,0,-0.165386,0.849296,9.941042,0.277932,-0.065372,-0.012655,0.198371,0.658584,-0.074368,6.587834,2.414628,18.519890
00708,223900000,1970,1,1,0,0,42,0,-0.348601,0.609208,9.686953,0.334699,-0.046370,0.000396,0.193169,0.655711,-0.079839,6.782337,2.386966,18.517410
00709,233900000,1970,1,1,0,0,42,0,-0.366019,0.234751,9.543258,0.385121,-0.024328,-0.006234,0.195734,0.655776,-0.077112,7.005616,2.372286,18.512066
00710,243900000,1970,1,1,0,0,42,0,-0.389951,-0.139791,9.476048,0.340403,0.011462,-0.019959,0.198530,0.647215,-0.081942,7.203047,2.378960,18.501585
00711,253900000,1970,1,1,0,0,42,0,-0.353715,-0.589426,9.493433,0.314318,0.040562,-0.083412,0.193169,0.655711,-0.079839,7.384103,2.406837,18.457302
00712,263900000,1970,1,1,0,0,42,0,-0.216811,-0.567075,9.825089,0.222227,0.044569,-0.177080,0.198820,0.652568,-0.084407,7.510099,2.444049,18.359665
00713,273900000,1970,1,1,0,0,42,0,-0.177385,-0.080842,10.312071,0.143357,0.015860,-0.229756,0.190894,0.660999,-0.085031,7.589474,2.469120,18.230461
00714,283900000,1970,1,1,0,0,42,0,-0.263238,0.334974,10.497911,0.088836,-0.044746,-0.249040,0.193761,0.655180,-0.089843,7.636896,2.461357,18.085199
00715,293900000,1970,1,1,0,0,42,0,-0.435838,0.674958,10.709887,0.118478,-0.118391,-0.249474,0.193908,0.655047,-0.092344,7.701129,2.411977,17.934502
00716,303900000,1970,1,1,0,0,42,0,-0.710399,0.671728,10.608238,0.192322,-0.189944,-0.237749,0.187968,0.652838,-0.085310,7.807886,2.321299,17.784790
00717,313900000,1970,1,1,0,0,42,0,-1.013648,0.377454,10.136559,0.270227,-0.233966,-0.244965,0.183127,0.658060,-0.093229,7.959232,2.206535,17.627165
00718,323900000,1970,1,1,0,0,42,0,-1.097935,-0.045706,9.761739,0.343601,-0.225711,-0.280074,0.180568,0.652377,-0.098492,8.152173,2.099751,17.449808
00719,333900000,1970,1,1,0,0,42,0,-1.038392,-0.451458,9.606676,0.360882,-0.189477,-0.318750,0.186071,0.649366,-0.100559,8.354604,2.017327,17.253332
00720,343900000,1970,1,1,0,0,42,0,-0.922867,-0.675000,9.660294,0.337319,-0.155031,-0.376241,0.180644,0.649501,-0.101011,8.542726,1.959962,17.027168
00721,353900000,1970,1,1,0,0,42,0,-0.816674,-0.921280,9.778609,0.271813,-0.136095,-0.430018,0.178073,0.655055,-0.101201,8.692508,1.918602,16.771690
00722,363900000,1970,1,1,0,0,42,0,-0.696669,-0.858415,10.183208,0.165986,-0.141212,-0.498209,0.172428,0.652580,-0.099169,8.780511,1.880815,16.477041
00723,373900000,1970,1,1,0,0,42,0,-0.848657,-0.535270,10.478262,0.092189,-0.180439,-0.550183,0.158934,0.655660,-0.100280,8.825378,1.825725,16.149452
00724,383900000,1970,1,1,0,0,42,0,-1.054515,-0.240629,10.335351,0.085471,-0.262825,-0.618302,0.167440,0.657935,-0.104587,8.865393,1.730225,15.775723
00725,393900000,1970,1,1,0,0,42,0,-1.246631,0.078252,10.145715,0.051277,-0.294980,-0.639068,0.153513,0.650177,-0.103268,8.886058,1.618604,15.387965
00726,403900000,1970,1,1,0,0,42,0,-1.343910,-0.007342,9.884138,0.091751,-0.313129,-0.664866,0.153803,0.655530,-0.105733,8.930233,1.499203,14.983520
00727,413900000,1970,1,1,0,0,42,0,-1.267425,-0.047344,9.592818,0.160330,-0.298347,-0.717552,0.143317,0.658278,-0.111620,9.013765,1.393352,14.550672
00728,423900000,1970,1,1,0,0,42,0,-1.162256,-0.036555,9.710389,0.149983,-0.256329,-0.715909,0.150871,0.652987,-0.103476,9.092172,1.311736,14.122185
00729,433900000,1970,1,1,0,0,42,0,-0.991185,-0.227808,9.908255,0.174760,-0.230405,-0.730036,0.134959,0.655870,-0.109815,9.185188,1.246755,13.688453
00730,443900000,1970,1,1,0,0,42,0,-0.868614,-0.334894,10.219936,0.267656,-0.247581,-0.760053,0.118681,0.656276,-0.111169,9.331526,1.175707,13.235471
00731,453900000,1970,1,1,0,0,42,0,-1.095389,-0.375700,10.150974,0.307815,-0.267633,-0.784562,0.121755,0.664304,-0.113391,9.501142,1.096868,12.766464
00732,463900000,1970,1,1,0,0,42,0,-1.216622,-0.258361,9.852360,0.204344,-0.249932,-0.805798,0.107680,0.656679,-0.109571,9.611863,1.031236,12.287380
00733,473900000,1970,1,1,0,0,42,0,-1.764973,0.056905,10.193078,0.007786,-0.276313,-0.784111,0.124178,0.658883,-0.110700,9.610728,0.949078,11.817746
00734,483900000,1970,1,1,0,0,42,0,-1.591839,0.224014,9.979641,-0.097585,-0.304762,-0.780569,0.113479,0.653402,-0.116640,9.549953,0.850316,11.348054
00735,493900000,1970,1,1,0,0,42,0,-1.942578,0.476186,10.047610,-0.154836,-0.320428,-0.793606,0.105115,0.656614,-0.112298,9.457077,0.743283,10.869224
00736,503900000,1970,1,1,0,0,42,0,-2.067456,0.193356,9.469969,-0.052327,-0.321358,-0.878408,0.097189,0.665045,-0.112922,9.423207,0.643178,10.342430
00737,513900000,1970,1,1,0,0,42,0,-2.006779,0.314285,9.002810,-0.039059,-0.194024,-0.960651,0.094405,0.662369,-0.113165,9.397114,0.622491,9.781114
00738,523900000,1970,1,1,0,0,42,0,-1.544306,0.329212,9.523964,-0.133946,-0.087864,-0.990647,0.091473,0.659827,-0.110908,9.316466,0.664117,9.212882
00739,533900000,1970,1,1,0,0,42,0,-1.053680,0.366662,10.691914,-0.063451,-0.067118,-1.054834,0.080248,0.663238,-0.104290,9.275285,0.722826,8.610257
00740,543900000,1970,1,1,0,0,42,0,-0.655975,1.102765,11.327124,0.052580,-0.167990,-1.056678,0.069762,0.665986,-0.110177,9.300130,0.724577,7.997113
00741,553900000,1970,1,1,0,0,42,0,-0.419718,1.502988,11.503292,0.008852,-0.310545,-0.900297,0.066688,0.657958,-0.107956,9.301292,0.631383,7.459173
00742,563900000,1970,1,1,0,0,42,0,-0.671129,1.353886,11.053105,-0.059042,-0.471378,-0.728935,0.064123,0.657893,-0.110683,9.265697,0.431256,7.003434
00743,573900000,1970,1,1,0,0,42,0,-1.031551,0.798030,10.033195,-0.021495,-0.592238,-0.701232,0.055398,0.653008,-0.103893,9.253501,0.160045,6.552333
00744,583900000,1970,1,1,0,0,42,0,-1.249342,-0.214517,9.131150,0.128786,-0.585691,-0.765929,0.050481,0.661106,-0.109293,9.329489,-0.101226,6.065020
00745,593900000,1970,1,1,0,0,42,0,-1.314085,-0.945613,8.688725,0.165588,-0.503366,-0.860995,0.044694,0.653146,-0.107297,9.428702,-0.306326,5.531276
00746,603900000,1970,1,1,0,0,42,0,-1.257075,-1.264482,8.813920,0.038221,-0.398653,-0.933431,0.039557,0.658634,-0.110213,9.456729,-0.444827,4.966217
00747,613900000,1970,1,1,0,0,42,0,-1.142157,-1.412121,9.373957,-0.100993,-0.319183,-1.056293,0.023054,0.662047,-0.106548,9.406585,-0.526976,4.339187
00748,623900000,1970,1,1,0,0,42,0,-0.760441,-0.851387,10.047654,-0.238815,-0.261591,-1.176027,0.017769,0.667668,-0.106964,9.278710,-0.566407,3.649821
00749,633900000,1970,1,1,0,0,42,0,-0.492874,0.238837,10.670381,-0.300946,-0.253459,-1.227747,0.022397,0.654217,-0.099099,9.115937,-0.598238,2.932145
00750,643900000,1970,1,1,0,0,42,0,-0.106512,1.416292,10.795540,-0.382856,-0.314562,-1.096475,0.000758,0.663119,-0.098351,8.906163,-0.678738,2.283537
00751,653900000,1970,1,1,0,0,42,0,-0.360766,0.882310,11.155403,-0.402418,-0.461632,-0.889570,0.000178,0.652413,-0.093420,8.685279,-0.863105,1.739247
00752,663900000,1970,1,1,0,0,42,0,-0.844808,-0.146972,10.731450,-0.133161,-0.613176,-0.945202,-0.018814,0.652886,-0.095001,8.621568,-1.129850,1.150928
00753,673900000,1970,1,1,0,0,42,0,-1.107953,0.207330,9.799057,-0.042753,-0.630307,-1.152722,-0.019180,0.650409,-0.090017,8.614955,-1.388857,0.443504
00754,683900000,1970,1,1,0,0,42,0,-1.367881,0.255432,8.886061,-0.144268,-0.594030,-1.321359,-0.024754,0.650677,-0.087967,8.555583,-1.613268,-0.356144
00755,693900000,1970,1,1,0,0,42,0,-1.556484,-0.284591,8.170584,-0.198435,-0.471864,-1.531586,-0.043823,0.654025,-0.087029,8.470880,-1.751613,-1.264364
00756,703900000,1970,1,1,0,0,42,0,-1.522454,-0.010948,7.947631,-0.261277,-0.271232,-1.757318,-0.046903,0.651616,-0.082271,8.354718,-1.758915,-2.283671
00757,713900000,1970,1,1,0,0,42,0,-1.123006,0.956181,8.346961,-0.460404,-0.091566,-1.813697,-0.066338,0.652487,-0.076348,8.124178,-1.662764,-3.320037
00758,723900000,1970,1,1,0,0,42,0,-0.797991,1.325319,9.262841,-0.683160,-0.030932,-1.715845,-0.063850,0.655428,-0.071103,7.762399,-1.545318,-4.296575
00759,733900000,1970,1,1,0,0,42,0,-0.562248,1.724730,9.822487,-0.782032,-0.047267,-1.617130,-0.081003,0.645393,-0.062525,7.340748,-1.451232,-5.218836
00760,743900000,1970,1,1,0,0,42,0,-0.387632,2.256657,10.467113,-0.853498,-0.133311,-1.470767,-0.097430,0.645931,-0.061379,6.875255,-1.423601,-6.064741
00761,753900000,1970,1,1,0,0,42,0,-0.699118,1.581791,10.555438,-0.683639,-0.261544,-1.376043,-0.095456,0.646527,-0.048649,6.506189,-1.481432,-6.865526
00762,763900000,1970,1,1,0,0,42,0,-1.096632,1.140447,9.560254,-0.238614,-0.378122,-1.594058,-0.106900,0.647328,-0.039548,6.396833,-1.594916,-7.797659
00763,773900000,1970,1,1,0,0,42,0,-1.418203,1.773764,7.925676,0.000685,-0.233924,-1.872287,-0.117374,0.638839,-0.050508,6.429786,-1.609114,-8.879014
00764,783900000,1970,1,1,0,0,42,0,-1.324339,2.679163,7.608251,0.056496,-0.020614,-1.925891,-0.125803,0.633689,-0.048721,6.494272,-1.497479,-9.977132
00765,793900000,1970,1,1,0,0,42,0,-1.025991,3.359917,7.665630,-0.064669,0.117949,-1.795366,-0.144948,0.639913,-0.045263,6.484479,-1.314879,-10.991801
00766,803900000,1970,1,1,0,0,42,0,-0.567363,3.969423,8.145246,-0.234407,0.223157,-1.600002,-0.150954,0.629343,-0.040784,6.371344,-1.086004,-11.888637
00767,813900000,1970,1,1,0,0,42,0,-0.191955,4.335595,9.020520,-0.455021,0.229719,-1.284394,-0.162386,0.618907,-0.036757,6.125318,-0.875881,-12.605897
00768,823900000,1970,1,1,0,0,42,0,-0.373993,2.901356,10.105918,-0.571473,0.154426,-0.999365,-0.168114,0.624926,-0.029670,5.808172,-0.729180,-13.166266
00769,833900000,1970,1,1,0,0,42,0,-0.769534,0.818431,10.683684,-0.500033,-0.031996,-0.963793,-0.176620,0.622652,-0.025364,5.530970,-0.693680,-13.717613
00770,843900000,1970,1,1,0,0,42,0,-1.050341,-0.315091,11.055235,-0.427477,-0.031742,-1.197034,-0.171702,0.614554,-0.019964,5.296508,-0.647891,-14.402192
00771,853900000,1970,1,1,0,0,42,0,-1.025367,0.883937,11.089613,-0.366722,-0.019964,-1.485816,-0.198632,0.634695,-0.017095,5.097939,-0.582939,-15.250904
00772,863900000,1970,1,1,0,0,42,0,-0.907856,1.936164,10.419433,-0.451142,-0.037579,-1.552876,-0.196924,0.607464,-0.012046,4.850500,-0.528046,-16.139246
00773,873900000,1970,1,1,0,0,42,0,-1.254538,2.666869,9.382309,-0.429707,-0.004352,-1.591844,-0.202433,0.616093,-0.007442,4.614543,-0.456065,-17.048395
00774,883900000,1970,1,1,0,0,42,0,-0.920658,3.370442,9.102847,-0.226243,0.302419,-1.583657,-0.216578,0.605726,-0.003640,4.492553,-0.212047,-17.938911
00775,893900000,1970,1,1,0,0,42,0,-0.363162,5.286438,10.110084,-0.075781,0.095105,-1.449642,-0.227502,0.603253,-0.004561,4.453818,-0.093713,-18.762672
00776,903900000,1970,1,1,0,0,42,0,0.310185,5.938713,9.825974,-0.052017,-0.006849,-1.032876,-0.233206,0.586799,-0.007621,4.427290,-0.052584,-19.353033
00777,913900000,1970,1,1,0,0,42,0,0.004701,5.190851,10.758153,-0.023797,-0.134185,-0.662872,-0.241866,0.590275,0.001723,4.416737,-0.100763,-19.737892
00778,923900000,1970,1,1,0,0,42,0,0.502422,3.900714,9.614050,-0.073670,-0.321503,-0.450507,-0.250295,0.585125,0.003511,4.378007,-0.265469,-20.009914
00779,933900000,1970,1,1,0,0,42,0,0.118937,1.359569,10.904524,-0.054830,-0.375207,-0.320831,-0.247292,0.590410,0.001272,4.350529,-0.466729,-20.210814
00780,943900000,1970,1,1,0,0,42,0,-0.452856,0.185727,10.137397,0.313138,-0.465832,-0.704329,-0.244366,0.598571,0.001551,4.536911,-0.702395,-20.634493
00781,953900000,1970,1,1,0,0,42,0,0.108258,2.122729,10.128113,0.337855,-0.374393,-1.071051,-0.263630,0.576836,-0.005174,4.741700,-0.867300,-21.263010
00782,963900000,1970,1,1,0,0,42,0,0.829926,3.184617,10.381255,-0.016298,-0.440476,-1.002214,-0.261206,0.571416,-0.002483,4.745092,-1.072269,-21.858231
00783,973900000,1970,1,1,0,0,42,0,0.703661,2.733824,9.899619,-0.206841,-0.530774,-0.948842,-0.277999,0.569477,0.003647,4.641152,-1.331749,-22.426149
00784,983900000,1970,1,1,0,0,42,0,0.487312,2.596363,8.495465,-0.466436,-0.476162,-0.974826,-0.272863,0.563989,0.006564,4.391262,-1.560754,-23.007490
00785,993900000,1970,1,1,0,0,42,0,0.466007,3.558569,7.601194,-0.701962,-0.293344,-0.987074,-0.270377,0.578098,0.011866,4.008127,-1.687839,-23.585342
00786,3900000,1970,1,1,0,0,43,0,0.592122,5.316185,6.626230,-0.906129,-0.056698,-0.810087,-0.287391,0.567926,0.017945,3.505320,-1.690509,-24.049261
00787,13900000,1970,1,1,0,0,43,0,0.894523,6.621184,6.487954,-0.952173,0.182673,-0.512182,-0.287822,0.557082,0.020375,2.970725,-1.570352,-24.338211
00788,23900000,1970,1,1,0,0,43,0,1.180348,7.119609,6.982416,-0.645687,0.368041,-0.313681,-0.290767,0.565780,0.027709,2.607951,-1.351935,-24.509748
00789,33900000,1970,1,1,0,0,43,0,1.464616,6.458280,8.246197,-0.258629,0.427733,-0.174969,-0.290543,0.562771,0.022687,2.464573,-1.103570,-24.600595
00790,43900000,1970,1,1,0,0,43,0,0.823650,4.226194,9.369613,0.049443,0.252075,-0.142045,-0.295894,0.560029,0.019716,2.497194,-0.956673,-24.677227
00791,53900000,1970,1,1,0,0,43,0,0.624802,3.158126,9.832213,0.373932,0.029208,-0.407870,-0.293618,0.554739,0.024909,2.718298,-0.930373,-24.913422
00792,63900000,1970,1,1,0,0,43,0,0.598317,4.043704,8.924356,0.317443,-0.014229,-0.551308,-0.304256,0.557621,0.021522,2.908314,-0.924009,-25.232054
00793,73900000,1970,1,1,0,0,43,0,0.317423,4.805412,8.529448,-0.077065,0.103505,-0.491410,-0.295965,0.557285,0.019698,2.871580,-0.851712,-25.514919
00794,83900000,1970,1,1,0,0,43,0,0.463705,5.571518,8.050236,-0.355707,0.270244,-0.356468,-0.307260,0.552333,0.023762,2.673422,-0.687995,-25.711504
00795,93900000,1970,1,1,0,0,43,0,0.399461,5.958870,8.179704,-0.550465,0.428736,-0.130721,-0.302127,0.552464,0.029218,2.361853,-0.440437,-25.780512
00796,103900000,1970,1,1,0,0,43,0,0.236327,5.314147,8.544182,-0.779224,0.726480,0.132300,-0.299555,0.546908,0.029408,1.918175,-0.028284,-25.691456
00797,113900000,1970,1,1,0,0,43,0,-0.091496,4.050889,9.897017,-0.603414,0.613976,0.130426,-0.294209,0.555270,0.034917,1.575873,0.320044,-25.608892
00798,123900000,1970,1,1,0,0,43,0,0.090827,3.895190,10.248541,-0.238080,0.462998,0.042587,-0.304989,0.552664,0.031494,1.442843,0.583820,-25.576624
00799,133900000,1970,1,1,0,0,43,0,0.289448,4.539772,10.550971,-0.144860,0.462752,0.064198,-0.301979,0.552331,0.026716,1.363737,0.846793,-25.538910
00800,143900000,1970,1,1,0,0,43,0,0.063578,3.888084,11.656142,-0.163675,0.449256,0.123702,-0.296551,0.552196,0.027168,1.274596,1.101409,-25.466095
00801,153900000,1970,1,1,0,0,43,0,0.518285,3.986147,11.625465,0.233245,0.039694,-0.051904,-0.304635,0.566384,0.031583,1.410962,1.123894,-25.497040
00802,163900000,1970,1,1,0,0,43,0,0.372990,4.678504,9.889394,0.448546,-0.060799,-0.180316,-0.304552,0.557886,0.026526,1.669285,1.090843,-25.603819
00803,173900000,1970,1,1,0,0,43,0,0.268249,5.377798,10.526047,0.536014,-0.140471,-0.109796,-0.304256,0.557621,0.021522,1.978623,1.011275,-25.673668
00804,183900000,1970,1,1,0,0,43,0,0.185402,4.787355,8.409945,0.570680,-0.159776,-0.022266,-0.301039,0.571140,0.019335,2.308775,0.919167,-25.693840
00805,193900000,1970,1,1,0,0,43,0,-0.283718,3.954107,8.703317,0.583838,0.100757,-0.085972,-0.312405,0.563444,0.023382,2.645844,0.978184,-25.739523
