// General information: 
//  MT Manager version: 2019.0.1 
//  XDA version: 2019.0.1 build 2740 rev 84096 built on 2019-01-30
// Device information: 
//  DeviceId: 077002EC
//  ProductCode: MTi-G-700-2A5G4
//  Firmware Version: 1.4.1
//  Hardware Version: 2.0.0
// Device settings: 
//  Filter Profile: GeneralMag(3.17)
//  Option Flags: Orientation Smoother Disabled, AHS Disabled, ICC Disabled
//  GNSS Platform: Portable
// Coordinate system: ENU
PacketCounter,UTC_Nano,UTC_Year,UTC_Month,UTC_Day,UTC_Hour,UTC_Minute,UTC_Second,UTC_Valid,Acc_X,Acc_Y,Acc_Z,FreeAcc_E,FreeAcc_N,FreeAcc_U,Gyr_X,Gyr_Y,Gyr_Z,Mag_X,Mag_Y,Mag_Z,VelInc_X,VelInc_Y,VelInc_Z,OriInc_q0,OriInc_q1,OriInc_q2,OriInc_q3,Roll,Pitch,Yaw,Vel_E,Vel_N,Vel_U
28367,177700000,2019,4,30,12,27,46,0,-0.067693,-0.018852,9.788767,-0.427303,0.040535,0.007344,-0.007933,0.005346,-0.000467,0.663128,-0.140551,0.066525,-0.000672,-0.000181,0.097888,1.000000,-0.000040,0.000027,-0.000002,-2.509433,1.194932,103.003464,0,0,0
28368,187700000,2019,4,30,12,27,46,0,-0.051746,-0.027896,9.784248,-0.426229,0.059764,0.001198,-0.006003,0.003348,-0.000782,0.665405,-0.148842,0.071857,-0.000514,-0.000273,0.097843,1.000000,-0.000030,0.000017,-0.000004,-2.510390,1.196007,102.997986,0,0,0
28369,197700000,2019,4,30,12,27,46,0,-0.050165,-0.047347,9.816311,-0.406144,0.065690,0.029710,-0.009684,0.002074,-0.000963,0.673279,-0.151473,0.080268,-0.000500,-0.000464,0.098163,1.000000,-0.000048,0.000010,-0.000005,-2.513477,1.196282,103.003731,0,0,0
28370,207700000,2019,4,30,12,27,46,0,-0.061632,-0.013070,9.819100,-0.435518,0.049469,0.032295,-0.009143,0.003306,-0.000570,0.682591,-0.146703,0.068120,-0.000613,-0.000122,0.098191,1.000000,-0.000046,0.000017,-0.000003,-2.516256,1.197273,103.009529,0,0,0
28371,217700000,2019,4,30,12,27,46,0,-0.077371,-0.023689,9.812837,-0.424684,0.024440,0.031083,-0.009070,0.002177,0.001699,0.676458,-0.148984,0.075366,-0.000772,-0.000228,0.098128,1.000000,-0.000045,0.000011,0.000008,-2.518940,1.197728,103.007317,0,0,0
28372,227700000,2019,4,30,12,27,46,0,-0.070954,-0.007481,9.791797,-0.443073,0.030360,0.011625,-0.005450,0.004202,0.000691,0.679711,-0.143665,0.070482,-0.000705,-0.000069,0.097918,1.000000,-0.000027,0.000021,0.000003,-2.519574,1.199289,103.009438,0,0,0
28373,237700000,2019,4,30,12,27,46,0,-0.060037,-0.035196,9.796359,-0.424913,0.052114,0.015526,-0.010041,0.003765,0.001429,0.673961,-0.149188,0.069979,-0.000597,-0.000342,0.097964,1.000000,-0.000050,0.000019,0.000007,-2.522813,1.200664,103.003860,0,0,0
28374,247700000,2019,4,30,12,27,46,0,-0.038279,-0.029057,9.824639,-0.427432,0.073720,0.042269,-0.006339,-0.001387,0.002006,0.676751,-0.137658,0.075440,-0.000384,-0.000284,0.098246,1.000000,-0.000032,-0.000007,0.000010,-2.523941,1.199048,103.009033,0,0,0
28375,257700000,2019,4,30,12,27,46,0,-0.064070,-0.023438,9.805188,-0.435906,0.046712,0.022136,-0.007828,0.001070,-0.000355,0.682213,-0.149261,0.073255,-0.000640,-0.000227,0.098052,1.000000,-0.000039,0.000005,-0.000002,-2.525910,1.198871,102.995255,0,0,0
28376,267700000,2019,4,30,12,27,46,0,-0.059638,-0.013897,9.797057,-0.434494,0.049963,0.008791,-0.006861,0.004208,-0.002600,0.676605,-0.143321,0.075403,-0.000592,-0.000132,0.097971,1.000000,-0.000034,0.000021,-0.000013,-2.527391,1.200345,102.996605,0,0,0
28377,277700000,2019,4,30,12,27,46,0,-0.068135,-0.025843,9.798968,-0.435231,0.034419,0.014850,-0.007652,0.000619,0.001617,0.682134,-0.146292,0.075850,-0.000681,-0.000251,0.097990,1.000000,-0.000038,0.000003,0.000008,-2.529256,1.199910,102.993423,0,0,0
28378,287700000,2019,4,30,12,27,46,0,-0.053730,-0.008470,9.813742,-0.453368,0.052865,0.029000,-0.006375,0.000588,0.000285,0.687511,-0.149127,0.078875,-0.000537,-0.000078,0.098137,1.000000,-0.000032,0.000003,0.000001,-2.530409,1.199405,102.992455,0,0,0
28379,297700000,2019,4,30,12,27,46,0,-0.058882,-0.026339,9.817016,-0.435385,0.056428,0.028885,-0.006132,0.006133,0.000772,0.685387,-0.140973,0.070967,-0.000583,-0.000257,0.098170,1.000000,-0.000031,0.000031,0.000004,-2.531424,1.202075,102.993858,0,0,0
28380,307700000,2019,4,30,12,27,46,0,-0.051092,-0.017921,9.806555,-0.439611,0.059204,0.021723,-0.004108,0.006839,0.000572,0.679711,-0.143665,0.070482,-0.000504,-0.000175,0.098066,1.000000,-0.000021,0.000034,0.000003,-2.531262,1.205198,102.985085,0,0,0
28381,317700000,2019,4,30,12,27,46,0,-0.057044,-0.031082,9.778840,-0.426587,0.053529,-0.004182,-0.011263,0.002908,0.001922,0.679558,-0.143528,0.073059,-0.000568,-0.000300,0.097788,1.000000,-0.000056,0.000015,0.000010,-2.535187,1.206068,102.983719,0,0,0
28382,327700000,2019,4,30,12,27,46,0,-0.055420,-0.019249,9.787509,-0.440149,0.050517,-0.004332,-0.008863,0.000053,0.000267,0.679857,-0.138002,0.070519,-0.000554,-0.000184,0.097875,1.000000,-0.000044,0.000000,0.000001,-2.537753,1.205257,102.981407,0,0,0
28383,337700000,2019,4,30,12,27,46,0,-0.049980,-0.024248,9.850698,-0.440126,0.063475,0.065807,-0.009165,-0.000069,0.000299,0.681829,-0.146019,0.081004,-0.000500,-0.000233,0.098507,1.000000,-0.000046,-0.000000,0.000001,-2.540482,1.204420,102.972214,0,0,0
28384,347700000,2019,4,30,12,27,46,0,-0.050418,-0.029876,9.795293,-0.427811,0.063141,0.017325,-0.009198,0.002144,-0.000154,0.673736,-0.151883,0.072537,-0.000502,-0.000290,0.097953,1.000000,-0.000046,0.000011,-0.000001,-2.543256,1.204778,102.973320,0,0,0
28385,357700000,2019,4,30,12,27,46,0,-0.059616,-0.029716,9.723285,-0.426782,0.053117,-0.054648,-0.009118,0.003146,0.000399,0.677214,-0.143868,0.065095,-0.000593,-0.000288,0.097233,1.000000,-0.000046,0.000016,0.000002,-2.546000,1.205668,102.984779,0,0,0
28386,367700000,2019,4,30,12,27,46,0,-0.057815,-0.038866,9.706584,-0.416392,0.053000,-0.075191,-0.007867,-0.000221,0.000669,0.685167,-0.149467,0.070911,-0.000578,-0.000381,0.097066,1.000000,-0.000039,-0.000001,0.000003,-2.547995,1.204707,102.983650,0,0,0
28387,377700000,2019,4,30,12,27,46,0,-0.093037,-0.000663,9.846417,-0.453332,0.017289,0.042664,-0.002157,0.004283,0.003254,0.687517,-0.154926,0.076261,-0.000926,-0.000005,0.098464,1.000000,-0.000011,0.000021,0.000016,-2.546696,1.206362,102.988754,0,0,0
28388,387700000,2019,4,30,12,27,46,0,-0.098487,0.013525,10.113961,-0.466970,0.004078,0.313807,-0.002857,0.003958,0.003898,0.682286,-0.146429,0.073274,-0.000981,0.000138,0.101140,1.000000,-0.000014,0.000020,0.000019,-2.545803,1.207821,102.999664,0,0,0
28389,397700000,2019,4,30,12,27,46,0,-0.047710,-0.021151,10.000085,-0.458311,0.059219,0.231514,-0.006963,0.008802,0.002470,0.668127,-0.145943,0.074685,-0.000468,-0.000205,0.100001,1.000000,-0.000035,0.000044,0.000012,-2.547254,1.212072,102.998909,0,0,0
28390,407700000,2019,4,30,12,27,46,0,-0.028589,-0.044774,9.582314,-0.411749,0.084973,-0.171753,-0.008886,0.007796,0.002033,0.679339,-0.152022,0.073004,-0.000278,-0.000439,0.095823,1.000000,-0.000044,0.000039,0.000010,-2.549820,1.215719,103.001343,0,0,0
28391,417700000,2019,4,30,12,27,46,0,-0.090705,-0.031482,9.414307,-0.397964,0.022228,-0.371057,-0.010246,0.001634,0.001457,0.677129,-0.135100,0.070304,-0.000906,-0.000305,0.094143,1.000000,-0.000051,0.000008,0.000007,-2.553176,1.215796,103.008209,0,0,0
28392,427700000,2019,4,30,12,27,46,0,-0.112715,-0.003474,9.708298,-0.438082,-0.010655,-0.102264,-0.006538,-0.005183,0.001189,0.668505,-0.143386,0.069550,-0.001132,-0.000028,0.097083,1.000000,-0.000033,-0.000026,0.000006,-2.554360,1.212082,102.993309,0,0,0
28393,437700000,2019,4,30,12,27,46,0,-0.065261,0.017291,10.091866,-0.487167,0.038764,0.291162,-0.007076,-0.000430,0.002170,0.665405,-0.148842,0.071857,-0.000653,0.000180,0.100919,1.000000,-0.000035,-0.000002,0.000011,-2.555874,1.211031,102.994225,0,0,0
28394,447700000,2019,4,30,12,27,46,0,-0.014335,-0.031836,10.080266,-0.451626,0.100348,0.304536,-0.009910,0.002814,0.003624,0.676983,-0.140763,0.070268,-0.000140,-0.000308,0.100803,1.000000,-0.000050,0.000014,0.000018,-2.559006,1.211833,103.003540,0,0,0
28395,457700000,2019,4,30,12,27,46,0,-0.035562,-0.038952,9.763004,-0.431042,0.078866,0.001790,-0.008785,0.004647,0.001418,0.684783,-0.146225,0.078660,-0.000351,-0.000381,0.097630,1.000000,-0.000044,0.000023,0.000007,-2.561493,1.213705,102.997017,0,0,0
28396,467700000,2019,4,30,12,27,46,0,-0.055487,-0.049892,9.619673,-0.398913,0.056425,-0.166281,-0.007501,0.000566,0.004115,0.676830,-0.140627,0.072844,-0.000554,-0.000492,0.096197,1.000000,-0.000038,0.000003,0.000021,-2.563221,1.213281,102.997566,0,0,0
28397,477700000,2019,4,30,12,27,46,0,-0.076220,-0.021228,9.743331,-0.440449,0.033536,-0.053756,-0.008367,0.000295,0.001102,0.682506,-0.137935,0.073329,-0.000762,-0.000204,0.097433,1.000000,-0.000042,0.000001,0.000006,-2.565470,1.212648,102.991943,0,0,0
28398,487700000,2019,4,30,12,27,46,0,-0.065253,0.000130,9.865775,-0.462299,0.042789,0.081548,-0.006777,0.003310,0.001857,0.685082,-0.140699,0.076120,-0.000649,0.000008,0.098658,1.000000,-0.000034,0.000017,0.000009,-2.566787,1.213779,102.982643,0,0,0
28399,497700000,2019,4,30,12,27,46,0,-0.054496,0.008138,9.815026,-0.476767,0.042986,0.039040,-0.006425,0.006200,-0.000510,0.676769,-0.155058,0.067598,-0.000539,0.000088,0.098150,1.000000,-0.000032,0.000031,-0.000003,-2.567943,1.216482,102.976006,0,0,0
28400,507700000,2019,4,30,12,27,46,0,-0.080570,-0.018452,9.780174,-0.439283,0.030575,-0.004031,-0.006987,0.008159,0.000709,0.676610,-0.149121,0.072789,-0.000798,-0.000178,0.097802,1.000000,-0.000035,0.000041,0.000004,-2.569454,1.220225,102.991440,0,0,0
28401,517700000,2019,4,30,12,27,46,0,-0.073651,-0.014874,9.868277,-0.452425,0.037690,0.079286,-0.005514,0.001877,0.001288,0.679406,-0.143391,0.075636,-0.000735,-0.000143,0.098683,1.000000,-0.000028,0.000009,0.000006,-2.570085,1.220441,102.997086,0,0,0
28402,527700000,2019,4,30,12,27,46,0,-0.071367,-0.041707,9.882449,-0.421006,0.046252,0.102142,-0.007644,0.001623,0.000345,0.679942,-0.146770,0.065310,-0.000712,-0.000410,0.098825,1.000000,-0.000038,0.000008,0.000002,-2.571927,1.220533,102.993370,0,0,0
28403,537700000,2019,4,30,12,27,46,0,-0.054256,-0.030820,9.784215,-0.431425,0.056882,0.007526,-0.010483,0.003131,-0.001593,0.679558,-0.143528,0.073059,-0.000540,-0.000298,0.097842,1.000000,-0.000052,0.000016,-0.000008,-2.575426,1.221408,102.993713,0,0,0
28404,547700000,2019,4,30,12,27,46,0,-0.053205,-0.030916,9.688848,-0.430612,0.060508,-0.094625,-0.009986,0.001843,0.000864,0.677214,-0.143868,0.065095,-0.000530,-0.000299,0.096889,1.000000,-0.000050,0.000009,0.000004,-2.578601,1.221636,102.990883,0,0,0
28405,557700000,2019,4,30,12,27,46,0,-0.064765,-0.000921,9.744777,-0.458084,0.040979,-0.046317,-0.006923,-0.003121,0.003343,0.679564,-0.149328,0.070445,-0.000651,-0.000002,0.097448,1.000000,-0.000035,-0.000016,0.000017,-2.579998,1.219076,102.991516,0,0,0
28406,567700000,2019,4,30,12,27,46,0,-0.048710,-0.049036,9.850490,-0.429001,0.067677,0.061424,-0.005274,-0.000690,0.001559,0.679711,-0.143665,0.070482,-0.000488,-0.000485,0.098505,1.000000,-0.000026,-0.000003,0.000008,-2.580479,1.217831,102.996910,0,0,0
28407,577700000,2019,4,30,12,27,46,0,-0.046199,-0.034057,9.880058,-0.439360,0.066495,0.096571,-0.007098,0.002055,0.002308,0.673888,-0.152020,0.069961,-0.000460,-0.000334,0.098801,1.000000,-0.000035,0.000010,0.000012,-2.581980,1.218214,102.994934,0,0,0
28408,587700000,2019,4,30,12,27,46,0,-0.043801,-0.040878,9.832057,-0.426006,0.073382,0.058622,-0.008379,0.006315,-0.000845,0.674035,-0.146357,0.069998,-0.000432,-0.000401,0.098321,1.000000,-0.000042,0.000032,-0.000004,-2.584282,1.220891,103.003159,0,0,0
28409,597700000,2019,4,30,12,27,46,0,-0.032311,-0.036991,9.777994,-0.433411,0.081273,-0.010377,-0.007438,0.002556,0.000847,0.673657,-0.148915,0.075133,-0.000321,-0.000363,0.097780,1.000000,-0.000037,0.000013,0.000004,-2.586002,1.221502,103.004128,0,0,0
28410,607700000,2019,4,30,12,27,46,0,-0.075452,-0.004382,9.779041,-0.453573,0.034350,-0.002701,-0.006158,0.002859,-0.000858,0.682664,-0.143871,0.068138,-0.000752,-0.000038,0.097790,1.000000,-0.000031,0.000014,-0.000004,-2.587014,1.222229,103.006882,0,0,0
28411,617700000,2019,4,30,12,27,46,0,-0.070557,0.003224,9.807810,-0.464951,0.033747,0.026609,-0.008235,0.004720,0.001255,0.682365,-0.149397,0.070678,-0.000701,0.000040,0.098078,1.000000,-0.000041,0.000024,0.000006,-2.589174,1.224117,103.002350,0,0,0
28412,627700000,2019,4,30,12,27,46,0,-0.090771,-0.014500,9.789755,-0.447483,0.017933,0.004340,-0.004638,0.003038,0.000460,0.681988,-0.151955,0.075814,-0.000905,-0.000140,0.097898,1.000000,-0.000023,0.000015,0.000002,-2.589295,1.224984,103.004814,0,0,0
28413,637700000,2019,4,30,12,27,46,0,-0.063712,-0.032441,9.785507,-0.427200,0.045576,0.000930,-0.006847,0.000761,0.001674,0.688041,-0.146705,0.071163,-0.000636,-0.000318,0.097855,1.000000,-0.000034,0.000004,0.000008,-2.590667,1.224564,103.010551,0,0,0
28414,647700000,2019,4,30,12,27,46,0,-0.053953,-0.036089,9.827401,-0.434397,0.059385,0.038954,-0.011834,0.001102,0.001843,0.676988,-0.146563,0.067654,-0.000538,-0.000349,0.098274,1.000000,-0.000059,0.000006,0.000009,-2.594874,1.224385,103.008049,0,0,0
28415,657700000,2019,4,30,12,27,46,0,-0.054507,-0.012668,9.869611,-0.462860,0.050337,0.084981,-0.004703,0.001185,0.003162,0.685088,-0.146499,0.073507,-0.000544,-0.000122,0.098696,1.000000,-0.000024,0.000006,0.000016,-2.594988,1.224272,103.009689,0,0,0
28416,667700000,2019,4,30,12,27,46,0,-0.078054,-0.018198,9.844260,-0.457293,0.034083,0.061363,-0.008341,0.001818,0.001091,0.676977,-0.134963,0.072881,-0.000779,-0.000174,0.098443,1.000000,-0.000042,0.000009,0.000005,-2.597205,1.224477,103.007645,0,0,0
28417,677700000,2019,4,30,12,27,46,0,-0.063084,-0.022751,9.725364,-0.443384,0.048857,-0.047706,-0.008516,0.001641,0.001686,0.665625,-0.140347,0.071912,-0.000629,-0.000219,0.097254,1.000000,-0.000043,0.000008,0.000008,-2.599492,1.224658,102.994560,0,0,0
28418,687700000,2019,4,30,12,27,46,0,-0.069785,-0.031585,9.718759,-0.434215,0.039536,-0.067370,-0.007113,0.004614,0.000333,0.662903,-0.143246,0.069084,-0.000693,-0.000309,0.097188,1.000000,-0.000036,0.000023,0.000002,-2.601015,1.226444,102.992188,0,0,0
28419,697700000,2019,4,30,12,27,46,0,-0.036721,-0.047748,9.795735,-0.423258,0.080960,0.004459,-0.005965,0.006084,0.000757,0.673882,-0.146220,0.072574,-0.000361,-0.000472,0.097957,1.000000,-0.000030,0.000030,0.000004,-2.601881,1.229060,102.994598,0,0,0
28420,707700000,2019,4,30,12,27,46,0,-0.031377,-0.033626,9.870772,-0.449222,0.083357,0.082422,-0.008762,0.002223,0.001342,0.673882,-0.146220,0.072574,-0.000312,-0.000328,0.098708,1.000000,-0.000044,0.000011,0.000007,-2.604344,1.229481,102.997543,0,0,0
28421,717700000,2019,4,30,12,27,46,0,-0.061423,-0.010362,9.842827,-0.463523,0.048407,0.062777,-0.005608,0.002835,0.001372,0.682506,-0.137935,0.073329,-0.000611,-0.000098,0.098428,1.000000,-0.000028,0.000014,0.000007,-2.604997,1.230252,103.000000,0,0,0
28422,727700000,2019,4,30,12,27,46,0,-0.072221,-0.028277,9.815046,-0.444448,0.040133,0.032688,-0.007630,0.001503,0.004620,0.679558,-0.143528,0.073059,-0.000721,-0.000275,0.098150,1.000000,-0.000038,0.000008,0.000023,-2.606740,1.230407,102.992020,0,0,0
28423,737700000,2019,4,30,12,27,46,0,-0.088815,-0.003568,9.788700,-0.453886,0.015231,0.002529,-0.004635,0.002697,0.002366,0.679570,-0.155128,0.067832,-0.000886,-0.000031,0.097887,1.000000,-0.000023,0.000013,0.000012,-2.606812,1.231143,102.991562,0,0,0
28424,747700000,2019,4,30,12,27,46,0,-0.063301,-0.011059,9.812786,-0.463766,0.036441,0.024926,-0.008866,0.002939,0.001738,0.674334,-0.140830,0.067458,-0.000630,-0.000102,0.098128,1.000000,-0.000044,0.000015,0.000009,-2.609341,1.231929,103.004745,0,0,0
28425,757700000,2019,4,30,12,27,46,0,-0.054328,-0.024976,9.806865,-0.446630,0.056109,0.025785,-0.008173,0.001219,0.000862,0.679479,-0.140560,0.075654,-0.000542,-0.000242,0.098069,1.000000,-0.000041,0.000006,0.000004,-2.611445,1.231794,103.000053,0,0,0
28426,767700000,2019,4,30,12,27,46,0,-0.046174,-0.035090,9.772820,-0.442116,0.071222,-0.010733,-0.008438,0.003051,0.002067,0.685387,-0.140973,0.070967,-0.000459,-0.000343,0.097728,1.000000,-0.000042,0.000015,0.000010,-2.613685,1.232749,102.994720,0,0,0
28427,777700000,2019,4,30,12,27,46,0,-0.070622,-0.017718,9.803433,-0.449283,0.041502,0.014455,-0.005530,0.002202,0.004217,0.688267,-0.144011,0.068605,-0.000704,-0.000172,0.098034,1.000000,-0.000028,0.000011,0.000021,-2.614232,1.233269,102.990860,0,0,0
28428,787700000,2019,4,30,12,27,46,0,-0.073277,-0.019303,9.857261,-0.455319,0.038467,0.075200,-0.005997,0.003315,0.002303,0.676988,-0.146563,0.067654,-0.000729,-0.000187,0.098573,1.000000,-0.000030,0.000017,0.000012,-2.615073,1.234358,102.989616,0,0,0
28429,797700000,2019,4,30,12,27,46,0,-0.051648,-0.027134,9.838466,-0.449100,0.059754,0.058694,-0.009402,0.003092,0.001242,0.679265,-0.154854,0.072985,-0.000513,-0.000262,0.098385,1.000000,-0.000047,0.000015,0.000006,-2.617891,1.235262,102.993729,0,0,0
28430,807700000,2019,4,30,12,27,46,0,-0.047981,-0.031638,9.755831,-0.443542,0.066478,-0.025819,-0.005863,0.003462,0.000059,0.685545,-0.146909,0.065776,-0.000476,-0.000311,0.097558,1.000000,-0.000029,0.000017,0.000000,-2.618715,1.236310,103.004974,0,0,0
28431,817700000,2019,4,30,12,27,46,0,-0.036977,-0.031788,9.736761,-0.438961,0.077775,-0.052487,-0.009319,0.002783,0.002524,0.682213,-0.149261,0.073255,-0.000367,-0.000309,0.097368,1.000000,-0.000047,0.000014,0.000013,-2.621459,1.237090,103.005600,0,0,0
28432,827700000,2019,4,30,12,27,46,0,-0.058694,-0.028206,9.809181,-0.446384,0.052115,0.021909,-0.008162,0.000190,0.003508,0.677135,-0.140900,0.067691,-0.000587,-0.000274,0.098092,1.000000,-0.000041,0.000001,0.000018,-2.623533,1.236396,103.009964,0,0,0
28433,837700000,2019,4,30,12,27,46,0,-0.056110,-0.045270,9.880047,-0.433425,0.054477,0.095556,-0.005953,0.000041,-0.000804,0.679406,-0.143391,0.075636,-0.000561,-0.000447,0.098801,1.000000,-0.000030,0.000000,-0.000004,-2.624375,1.235544,103.003479,0,0,0
28434,847700000,2019,4,30,12,27,46,0,-0.066806,-0.018907,9.853311,-0.455791,0.043581,0.067359,-0.011835,-0.001463,0.000754,0.674035,-0.146357,0.069998,-0.000670,-0.000177,0.098533,1.000000,-0.000059,-0.000007,0.000004,-2.628573,1.233858,103.000687,0,0,0
28435,857700000,2019,4,30,12,27,46,0,-0.063987,-0.027185,9.805436,-0.444528,0.046329,0.021355,-0.006172,0.000725,0.003419,0.685167,-0.149467,0.070911,-0.000639,-0.000266,0.098054,1.000000,-0.000031,0.000004,0.000017,-2.629505,1.233468,103.004715,0,0,0
28436,867700000,2019,4,30,12,27,46,0,-0.058065,-0.017444,9.781068,-0.455618,0.056703,-0.002855,-0.006296,0.004692,0.001296,0.685313,-0.143804,0.070948,-0.000576,-0.000168,0.097811,1.000000,-0.000031,0.000023,0.000006,-2.630538,1.235291,103.007797,0,0,0
28437,877700000,2019,4,30,12,27,46,0,-0.072060,-0.035650,9.802834,-0.433227,0.040183,0.020243,-0.005522,0.001640,0.002427,0.682664,-0.143871,0.068138,-0.000719,-0.000351,0.098028,1.000000,-0.000028,0.000008,0.000012,-2.631093,1.235428,103.004745,0,0,0
28438,887700000,2019,4,30,12,27,46,0,-0.052836,-0.016807,9.777580,-0.456832,0.056535,-0.001012,-0.005934,0.000819,0.001812,0.673956,-0.143388,0.072593,-0.000528,-0.000162,0.097776,1.000000,-0.000030,0.000004,0.000009,-2.631892,1.235071,103.002846,0,0,0
28439,897700000,2019,4,30,12,27,46,0,-0.073491,-0.008702,9.768159,-0.462130,0.029816,-0.019827,-0.005446,0.003757,0.000052,0.682591,-0.146703,0.068120,-0.000731,-0.000082,0.097682,1.000000,-0.000027,0.000019,0.000000,-2.632438,1.236340,103.001480,0,0,0
28440,907700000,2019,4,30,12,27,46,0,-0.057982,-0.019625,9.794715,-0.453720,0.059394,0.005078,-0.006670,0.003992,0.001414,0.685319,-0.149604,0.068335,-0.000576,-0.000190,0.097947,1.000000,-0.000033,0.000020,0.000007,-2.633674,1.237772,103.002945,0,0,0
28441,917700000,2019,4,30,12,27,46,0,-0.079191,-0.029981,9.844138,-0.445490,0.030052,0.058353,-0.009844,-0.001629,-0.001639,0.685161,-0.143667,0.073525,-0.000794,-0.000290,0.098441,1.000000,-0.000049,-0.000008,-0.000008,-2.636760,1.235893,103.005127,0,0,0
28442,927700000,2019,4,30,12,27,46,0,-0.044979,-0.030317,9.855987,-0.448992,0.066573,0.076098,-0.008960,0.001011,-0.001443,0.674035,-0.146357,0.069998,-0.000449,-0.000294,0.098560,1.000000,-0.000045,0.000005,-0.000007,-2.639322,1.235564,102.999939,0,0,0
28443,937700000,2019,4,30,12,27,46,0,-0.046451,-0.023365,9.771387,-0.456288,0.062082,-0.012290,-0.008271,0.004048,0.001402,0.676605,-0.143321,0.075403,-0.000461,-0.000226,0.097714,1.000000,-0.000041,0.000020,0.000007,-2.641469,1.237019,103.002747,0,0,0
28444,947700000,2019,4,30,12,27,46,0,-0.045407,-0.013423,9.761180,-0.461449,0.065791,-0.020091,-0.009656,-0.000970,0.001322,0.671380,-0.140624,0.069801,-0.000455,-0.000125,0.097612,1.000000,-0.000048,-0.000005,0.000007,-2.644397,1.235621,103.000908,0,0,0
28445,957700000,2019,4,30,12,27,46,0,-0.063727,-0.039992,9.798915,-0.435922,0.048436,0.015991,-0.005934,0.000215,0.001940,0.684935,-0.146362,0.076084,-0.000637,-0.000394,0.097989,1.000000,-0.000030,0.000001,0.000010,-2.645186,1.234922,102.998276,0,0,0
28446,967700000,2019,4,30,12,27,46,0,-0.066329,-0.013826,9.833858,-0.458681,0.043579,0.048704,-0.006835,0.001937,0.003240,0.685173,-0.155267,0.068298,-0.000661,-0.000132,0.098339,1.000000,-0.000034,0.000010,0.000016,-2.646481,1.235228,102.999626,0,0,0
28447,977700000,2019,4,30,12,27,46,0,-0.068856,-0.028962,9.807384,-0.445156,0.047848,0.028733,-0.005338,0.006782,0.000495,0.674181,-0.140694,0.070034,-0.000682,-0.000284,0.098074,1.000000,-0.000027,0.000034,0.000002,-2.646973,1.238185,103.009415,0,0,0
28448,987700000,2019,4,30,12,27,46,0,-0.044978,-0.032892,9.785413,-0.448934,0.067210,-0.001672,-0.005570,0.004370,0.000267,0.677062,-0.143732,0.067672,-0.000446,-0.000323,0.097854,1.000000,-0.000028,0.000022,0.000001,-2.647567,1.239829,103.003960,0,0,0
28449,997700000,2019,4,30,12,27,46,0,-0.056280,-0.015840,9.795918,-0.458651,0.050794,0.009728,-0.006899,0.002344,0.001194,0.676531,-0.146153,0.075384,-0.000560,-0.000152,0.097959,1.000000,-0.000034,0.000012,0.000006,-2.648915,1.240318,103.002708,0,0,0
28450,7700000,2019,4,30,12,27,47,0,-0.056488,-0.021192,9.801853,-0.461494,0.056397,0.017489,-0.007202,0.001529,-0.000502,0.676616,-0.154921,0.070175,-0.000563,-0.000205,0.098019,1.000000,-0.000036,0.000008,-0.000003,-2.650458,1.240283,103.003082,0,0,0
28451,17700000,2019,4,30,12,27,47,0,-0.047854,-0.028087,9.810280,-0.451470,0.064398,0.022345,-0.008446,0.002911,0.001569,0.679637,-0.146496,0.070464,-0.000476,-0.000273,0.098103,1.000000,-0.000042,0.000015,0.000008,-2.652709,1.241048,103.014236,0,0,0
28452,27700000,2019,4,30,12,27,47,0,-0.059157,-0.014900,9.821026,-0.466557,0.047745,0.037252,-0.007782,0.000484,-0.001320,0.682134,-0.146292,0.075850,-0.000591,-0.000141,0.098210,1.000000,-0.000039,0.000002,-0.000007,-2.654588,1.240399,103.012207,0,0,0
28453,37700000,2019,4,30,12,27,47,0,-0.074884,-0.024949,9.826751,-0.456157,0.040207,0.041490,-0.009524,0.000331,0.003353,0.682506,-0.137935,0.073329,-0.000749,-0.000240,0.098268,1.000000,-0.000048,0.000002,0.000017,-2.657403,1.239788,103.012001,0,0,0
28454,47700000,2019,4,30,12,27,47,0,-0.043263,-0.030699,9.789706,-0.448408,0.073159,0.006333,-0.007166,0.004465,0.000069,0.679271,-0.160654,0.070371,-0.000428,-0.000300,0.097897,1.000000,-0.000036,0.000022,0.000000,-2.658895,1.241500,103.001053,0,0,0
28455,57700000,2019,4,30,12,27,47,0,-0.048779,-0.038433,9.758433,-0.441453,0.062861,-0.021750,-0.006861,0.004055,0.001272,0.688036,-0.140906,0.073777,-0.000484,-0.000378,0.097584,1.000000,-0.000034,0.000020,0.000006,-2.660249,1.242882,103.018112,0,0,0
28456,67700000,2019,4,30,12,27,47,0,-0.064932,-0.008742,9.773974,-0.465616,0.040318,-0.012239,-0.006610,0.005957,0.001379,0.682360,-0.143598,0.073292,-0.000643,-0.000081,0.097740,1.000000,-0.000033,0.000030,0.000007,-2.661404,1.245476,103.008865,0,0,0
28457,77700000,2019,4,30,12,27,47,0,-0.069317,-0.031795,9.822568,-0.446523,0.041505,0.036373,-0.006112,0.004948,0.001607,0.676909,-0.143595,0.070249,-0.000688,-0.000312,0.098226,1.000000,-0.000031,0.000025,0.000008,-2.662279,1.247469,103.005547,0,0,0
28458,87700000,2019,4,30,12,27,47,0,-0.055372,-0.025499,9.851810,-0.453085,0.061404,0.067458,-0.003589,0.001981,0.001137,0.674035,-0.146357,0.069998,-0.000552,-0.000251,0.098518,1.000000,-0.000018,0.000010,0.000006,-2.661718,1.247744,103.004066,0,0,0
28459,97700000,2019,4,30,12,27,47,0,-0.062799,-0.027901,9.825735,-0.449345,0.053591,0.044105,-0.004552,0.003682,0.003485,0.674035,-0.146357,0.069998,-0.000624,-0.000275,0.098257,1.000000,-0.000023,0.000018,0.000017,-2.661686,1.249036,103.007813,0,0,0
28460,107700000,2019,4,30,12,27,47,0,-0.070802,-0.018448,9.773539,-0.456968,0.042588,-0.009377,-0.004416,0.003115,-0.001010,0.682749,-0.152639,0.062930,-0.000705,-0.000180,0.097735,1.000000,-0.000022,0.000016,-0.000005,-2.661626,1.249884,103.008598,0,0,0
28461,117700000,2019,4,30,12,27,47,0,-0.077230,-0.010167,9.777243,-0.464183,0.026432,-0.010352,-0.009198,-0.000621,0.000707,0.676312,-0.154647,0.075329,-0.000773,-0.000093,0.097772,1.000000,-0.000046,-0.000003,0.000004,-2.664291,1.248617,103.015327,0,0,0
28462,127700000,2019,4,30,12,27,47,0,-0.065895,-0.009175,9.795668,-0.467752,0.041569,0.007531,-0.007017,0.002612,0.003891,0.682067,-0.154924,0.073218,-0.000656,-0.000085,0.097957,1.000000,-0.000035,0.000013,0.000019,-2.665677,1.249277,103.025726,0,0,0
28463,137700000,2019,4,30,12,27,47,0,-0.049732,-0.047471,9.813590,-0.443492,0.071020,0.029751,-0.010022,0.003637,0.001037,0.676769,-0.155058,0.067598,-0.000494,-0.000465,0.098136,1.000000,-0.000050,0.000018,0.000005,-2.668811,1.250457,103.032310,0,0,0
28464,147700000,2019,4,30,12,27,47,0,-0.051685,-0.043287,9.815456,-0.438260,0.066641,0.033949,-0.011146,0.002778,0.002702,0.682439,-0.146566,0.070697,-0.000514,-0.000422,0.098155,1.000000,-0.000056,0.000014,0.000014,-2.672568,1.251186,103.040642,0,0,0
28465,157700000,2019,4,30,12,27,47,0,-0.056161,-0.045759,9.796063,-0.440506,0.059782,0.010830,-0.010649,0.004184,0.001377,0.684856,-0.143394,0.078679,-0.000558,-0.000447,0.097961,1.000000,-0.000053,0.000021,0.000007,-2.676038,1.252736,103.036644,0,0,0
28466,167700000,2019,4,30,12,27,47,0,-0.059781,-0.027027,9.802053,-0.452840,0.053143,0.015800,-0.008636,0.005382,0.001828,0.682286,-0.146429,0.073274,-0.000593,-0.000262,0.098021,1.000000,-0.000043,0.000027,0.000009,-2.678341,1.255000,103.029335,0,0,0
28467,177700000,2019,4,30,12,27,47,0,-0.050894,-0.013168,9.815331,-0.472362,0.061312,0.025564,-0.007822,0.005074,-0.000590,0.673956,-0.143388,0.072593,-0.000504,-0.000124,0.098153,1.000000,-0.000039,0.000025,-0.000003,-2.680210,1.256993,103.026138,0,0,0
28468,187700000,2019,4,30,12,27,47,0,-0.066902,-0.019785,9.796846,-0.457807,0.048320,0.012173,-0.003932,0.004488,0.002086,0.671075,-0.140350,0.074955,-0.000665,-0.000194,0.097969,1.000000,-0.000020,0.000022,0.000010,-2.679819,1.258728,103.023605,0,0,0
28469,197700000,2019,4,30,12,27,47,0,-0.062260,-0.024737,9.796678,-0.460447,0.050552,0.011182,-0.009276,0.003365,0.001020,0.679863,-0.143801,0.067905,-0.000619,-0.000238,0.097967,1.000000,-0.000046,0.000017,0.000005,-2.682503,1.259803,103.018341,0,0,0
28470,207700000,2019,4,30,12,27,47,0,-0.057442,-0.033797,9.819047,-0.452450,0.053528,0.031007,-0.006787,0.003556,0.001013,0.662604,-0.148772,0.071624,-0.000571,-0.000331,0.098191,1.000000,-0.000034,0.000018,0.000005,-2.683758,1.260972,103.015999,0,0,0
28471,217700000,2019,4,30,12,27,47,0,-0.050762,-0.033734,9.824242,-0.457852,0.066261,0.038385,-0.008984,0.002625,0.000387,0.687743,-0.152232,0.073703,-0.000505,-0.000329,0.098242,1.000000,-0.000045,0.000013,0.000002,-2.686290,1.261548,103.022713,0,0,0
28472,227700000,2019,4,30,12,27,47,0,-0.064229,-0.016989,9.810640,-0.463012,0.051017,0.024243,-0.006695,0.000313,-0.000229,0.681982,-0.146156,0.078427,-0.000642,-0.000163,0.098106,1.000000,-0.000033,0.000002,-0.000001,-2.687515,1.260800,103.025963,0,0,0
28473,237700000,2019,4,30,12,27,47,0,-0.051130,-0.013184,9.802750,-0.474864,0.059558,0.012683,-0.006367,0.002363,0.002971,0.679412,-0.149191,0.073022,-0.000509,-0.000126,0.098028,1.000000,-0.000032,0.000012,0.000015,-2.688498,1.261334,103.024979,0,0,0
28474,247700000,2019,4,30,12,27,47,0,-0.063149,-0.029777,9.800227,-0.454294,0.049150,0.015356,-0.009818,0.002860,0.000759,0.679491,-0.152159,0.070427,-0.000629,-0.000288,0.098002,1.000000,-0.000049,0.000014,0.000004,-2.691495,1.262075,103.027237,0,0,0
28475,257700000,2019,4,30,12,27,47,0,-0.048156,-0.017770,9.793297,-0.471415,0.065263,0.005815,-0.005413,0.001811,0.001396,0.685088,-0.146499,0.073507,-0.000480,-0.000172,0.097933,1.000000,-0.000027,0.000009,0.000007,-2.691964,1.262219,103.032829,0,0,0
28476,267700000,2019,4,30,12,27,47,0,-0.057131,-0.041390,9.800198,-0.439397,0.060823,0.014602,-0.008650,0.006181,0.001981,0.682213,-0.149261,0.073255,-0.000565,-0.000405,0.098002,1.000000,-0.000043,0.000031,0.000010,-2.694264,1.264911,103.030525,0,0,0
28477,277700000,2019,4,30,12,27,47,0,-0.047717,-0.039760,9.824288,-0.447127,0.073248,0.041020,-0.007965,0.004169,-0.000410,0.679485,-0.146359,0.073041,-0.000473,-0.000390,0.098243,1.000000,-0.000040,0.000021,-0.000002,-2.696211,1.266374,103.030968,0,0,0
28478,287700000,2019,4,30,12,27,47,0,-0.067302,-0.028594,9.832911,-0.455542,0.047186,0.049018,-0.006754,0.002438,0.002100,0.685161,-0.143667,0.073525,-0.000671,-0.000279,0.098329,1.000000,-0.000034,0.000012,0.000010,-2.697422,1.266919,103.030373,0,0,0
28479,297700000,2019,4,30,12,27,47,0,-0.061327,-0.020291,9.823850,-0.472204,0.050219,0.041327,-0.009647,0.001428,0.001070,0.684789,-0.152025,0.076047,-0.000612,-0.000193,0.098239,1.000000,-0.000048,0.000007,0.000005,-2.700301,1.266876,103.025391,0,0,0
28480,307700000,2019,4,30,12,27,47,0,-0.047508,-0.022932,9.791179,-0.461728,0.068259,0.011203,-0.010332,0.002750,0.002169,0.679259,-0.149054,0.075599,-0.000472,-0.000219,0.097912,1.000000,-0.000052,0.000014,0.000011,-2.703566,1.267577,103.030540,0,0,0
28481,317700000,2019,4,30,12,27,47,0,-0.054769,-0.015592,9.785027,-0.473832,0.064229,-0.000595,-0.006781,0.002185,0.001302,0.671014,-0.154781,0.069709,-0.000546,-0.000149,0.097850,1.000000,-0.000034,0.000011,0.000007,-2.704805,1.267942,103.032677,0,0,0
28482,327700000,2019,4,30,12,27,47,0,-0.057378,-0.028800,9.805638,-0.456619,0.059327,0.014200,-0.003622,0.001474,0.001019,0.679339,-0.152022,0.073004,-0.000572,-0.000284,0.098056,1.000000,-0.000018,0.000007,0.000005,-2.704243,1.267857,103.042557,0,0,0
28483,337700000,2019,4,30,12,27,47,0,-0.059822,-0.030132,9.818895,-0.461219,0.053381,0.033754,-0.004756,0.002852,0.002355,0.685387,-0.140973,0.070967,-0.000595,-0.000297,0.098189,1.000000,-0.000024,0.000014,0.000012,-2.704305,1.268622,103.046837,0,0,0
28484,347700000,2019,4,30,12,27,47,0,-0.061775,-0.033220,9.824926,-0.454391,0.054077,0.044858,-0.003619,0.005140,-0.002195,0.679418,-0.154991,0.070408,-0.000613,-0.000329,0.098249,1.000000,-0.000018,0.000026,-0.000011,-2.703753,1.270629,103.035370,0,0,0
28485,357700000,2019,4,30,12,27,47,0,-0.057399,-0.012254,9.804681,-0.475079,0.056350,0.014795,-0.005374,0.003962,0.001923,0.685392,-0.146772,0.068353,-0.000570,-0.000117,0.098047,1.000000,-0.000027,0.000020,0.000010,-2.704181,1.272000,103.043823,0,0,0
28486,367700000,2019,4,30,12,27,47,0,-0.062724,-0.026515,9.797265,-0.462001,0.053089,0.014039,-0.011052,0.003213,0.002682,0.674108,-0.143525,0.070016,-0.000624,-0.000254,0.097973,1.000000,-0.000055,0.000016,0.000013,-2.707832,1.273008,103.041901,0,0,0
28487,377700000,2019,4,30,12,27,47,0,-0.064140,-0.005698,9.790823,-0.478361,0.048312,0.005110,-0.010009,0.004746,0.003680,0.679412,-0.149191,0.073022,-0.000637,-0.000047,0.097908,1.000000,-0.000050,0.000024,0.000018,-2.710873,1.274921,103.040100,0,0,0
28488,387700000,2019,4,30,12,27,47,0,-0.059747,-0.029741,9.782594,-0.453182,0.058712,0.002765,-0.011070,0.002427,0.001565,0.685308,-0.138004,0.073562,-0.000595,-0.000287,0.097826,1.000000,-0.000055,0.000012,0.000008,-2.714553,1.275428,103.042252,0,0,0
28489,397700000,2019,4,30,12,27,47,0,-0.032986,-0.039282,9.822826,-0.456573,0.077983,0.042870,-0.005861,0.001880,0.000194,0.679711,-0.143665,0.070482,-0.000328,-0.000387,0.098228,1.000000,-0.000029,0.000009,0.000001,-2.715241,1.275635,103.030632,0,0,0
28490,407700000,2019,4,30,12,27,47,0,-0.058984,-0.037459,9.831849,-0.455096,0.059121,0.045351,-0.005175,0.005729,0.002364,0.682061,-0.149124,0.075832,-0.000584,-0.000370,0.098319,1.000000,-0.000026,0.000029,0.000012,-2.715530,1.278069,103.029106,0,0,0
28491,417700000,2019,4,30,12,27,47,0,-0.045199,-0.021518,9.825141,-0.472092,0.076206,0.041076,-0.008266,0.001063,0.002286,0.676751,-0.137658,0.075440,-0.000451,-0.000207,0.098251,1.000000,-0.000041,0.000005,0.000011,-2.717591,1.277810,103.032806,0,0,0
28492,427700000,2019,4,30,12,27,47,0,-0.059690,-0.037937,9.800636,-0.451443,0.062779,0.017825,-0.006820,0.003556,0.001949,0.677214,-0.143868,0.065095,-0.000593,-0.000373,0.098006,1.000000,-0.000034,0.000018,0.000010,-2.718808,1.279009,103.025238,0,0,0
28493,437700000,2019,4,30,12,27,47,0,-0.050445,-0.019797,9.771325,-0.463220,0.064910,-0.013787,-0.007465,0.001499,0.001294,0.671301,-0.137655,0.072397,-0.000503,-0.000191,0.097713,1.000000,-0.000037,0.000007,0.000006,-2.720421,1.278983,103.025307,0,0,0
28494,447700000,2019,4,30,12,27,47,0,-0.054610,-0.047570,9.792171,-0.436982,0.073896,0.004940,-0.003115,0.005460,0.003716,0.667975,-0.145807,0.077262,-0.000541,-0.000473,0.097922,1.000000,-0.000016,0.000027,0.000019,-2.719495,1.281309,103.021248,0,0,0
28495,457700000,2019,4,30,12,27,47,0,-0.065192,-0.009289,9.827940,-0.482675,0.047226,0.036084,-0.005735,0.003521,0.000227,0.670861,-0.154645,0.072286,-0.000648,-0.000087,0.098279,1.000000,-0.000029,0.000018,0.000001,-2.720131,1.282391,103.024673,0,0,0
28496,467700000,2019,4,30,12,27,47,0,-0.075055,-0.017807,9.828164,-0.476820,0.037454,0.046875,-0.007924,0.001469,0.003279,0.679418,-0.154991,0.070408,-0.000749,-0.000170,0.098282,1.000000,-0.000040,0.000007,0.000016,-2.721992,1.282350,103.037643,0,0,0
28497,477700000,2019,4,30,12,27,47,0,-0.062002,-0.004969,9.807343,-0.482370,0.050003,0.022533,-0.008778,0.004147,0.001215,0.676678,-0.140490,0.075421,-0.000616,-0.000041,0.098073,1.000000,-0.000044,0.000021,0.000006,-2.724361,1.283799,103.046089,0,0,0
28498,487700000,2019,4,30,12,27,47,0,-0.051570,-0.032447,9.780457,-0.459096,0.059153,-0.003265,-0.007986,0.005277,0.003202,0.688120,-0.149674,0.068568,-0.000511,-0.000317,0.097805,1.000000,-0.000040,0.000026,0.000016,-2.726218,1.286009,103.040253,0,0,0
28499,497700000,2019,4,30,12,27,47,0,-0.050800,-0.017719,9.795285,-0.475106,0.065625,0.009661,-0.008551,0.002876,0.003691,0.676988,-0.146563,0.067654,-0.000505,-0.000169,0.097953,1.000000,-0.000043,0.000014,0.000018,-2.728406,1.286822,103.043037,0,0,0
28500,507700000,2019,4,30,12,27,47,0,-0.065799,-0.018099,9.790570,-0.478185,0.047694,0.000239,-0.008908,0.002429,0.004599,0.693419,-0.149540,0.074188,-0.000656,-0.000172,0.097906,1.000000,-0.000045,0.000012,0.000023,-2.730788,1.287411,103.045464,0,0,0
28501,517700000,2019,4,30,12,27,47,0,-0.040403,-0.035961,9.807774,-0.461479,0.075028,0.024725,-0.011465,0.000938,-0.000327,0.688194,-0.146842,0.068586,-0.000403,-0.000348,0.098078,1.000000,-0.000057,0.000005,-0.000002,-2.734687,1.287014,103.044243,0,0,0
28502,527700000,2019,4,30,12,27,47,0,-0.036997,-0.030557,9.795478,-0.464788,0.083023,0.007639,-0.008532,0.000247,-0.002203,0.682207,-0.143461,0.075869,-0.000370,-0.000297,0.097955,1.000000,-0.000043,0.000001,-0.000011,-2.736937,1.286175,103.040825,0,0,0
28503,537700000,2019,4,30,12,27,47,0,-0.040499,-0.047067,9.816794,-0.451438,0.079662,0.033548,-0.008228,0.001895,0.002872,0.679637,-0.146496,0.070464,-0.000403,-0.000463,0.098168,1.000000,-0.000041,0.000009,0.000014,-2.738939,1.286422,103.038101,0,0,0
28504,547700000,2019,4,30,12,27,47,0,-0.049906,-0.039068,9.817262,-0.459182,0.070832,0.033584,-0.007023,0.004703,-0.000980,0.687743,-0.152232,0.073703,-0.000494,-0.000384,0.098173,1.000000,-0.000035,0.000024,-0.000005,-2.740311,1.288153,103.037544,0,0,0
28505,557700000,2019,4,30,12,27,47,0,-0.055685,-0.017036,9.796052,-0.471667,0.062400,0.012834,-0.003312,0.004861,0.000146,0.679558,-0.143528,0.073059,-0.000552,-0.000167,0.097961,1.000000,-0.000017,0.000024,0.000001,-2.739543,1.289991,103.041275,0,0,0
28506,567700000,2019,4,30,12,27,47,0,-0.079278,-0.011683,9.777098,-0.480225,0.038068,-0.006772,-0.005884,0.005205,0.002741,0.693943,-0.141319,0.069089,-0.000788,-0.000111,0.097771,1.000000,-0.000029,0.000026,0.000014,-2.740203,1.292124,103.039040,0,0,0
28507,577700000,2019,4,30,12,27,47,0,-0.083279,0.010647,9.801461,-0.494118,0.023521,0.009765,-0.005547,0.003827,0.002313,0.688414,-0.138348,0.068642,-0.000829,0.000112,0.098015,1.000000,-0.000028,0.000019,0.000012,-2.740665,1.293474,103.032188,0,0,0
28508,587700000,2019,4,30,12,27,47,0,-0.081046,-0.008922,9.822510,-0.483516,0.033813,0.036329,-0.006544,0.002957,0.001419,0.687737,-0.146432,0.076317,-0.000808,-0.000083,0.098225,1.000000,-0.000033,0.000015,0.000007,-2.741712,1.294304,103.024345,0,0,0
28509,597700000,2019,4,30,12,27,47,0,-0.043736,-0.024866,9.836788,-0.473734,0.074533,0.052655,-0.006685,0.002033,0.001533,0.685240,-0.146636,0.070930,-0.000435,-0.000242,0.098368,1.000000,-0.000033,0.000010,0.000008,-2.742849,1.294577,103.025375,0,0,0
28510,607700000,2019,4,30,12,27,47,0,-0.050965,-0.049028,9.809887,-0.454767,0.067496,0.024437,-0.009903,-0.001610,-0.000162,0.682433,-0.140766,0.073311,-0.000511,-0.000481,0.098099,1.000000,-0.000050,-0.000008,-0.000001,-2.745842,1.292711,103.026237,0,0,0
28511,617700000,2019,4,30,12,27,47,0,-0.060849,-0.043914,9.781520,-0.449389,0.060247,0.000785,-0.008965,-0.000830,0.000359,0.685392,-0.146772,0.068353,-0.000609,-0.000430,0.097815,1.000000,-0.000045,-0.000004,0.000002,-2.748282,1.291325,103.021912,0,0,0
28512,627700000,2019,4,30,12,27,47,0,-0.058357,-0.029199,9.786054,-0.461554,0.055508,0.004490,-0.011853,0.001173,0.000351,0.676537,-0.151953,0.072771,-0.000582,-0.000280,0.097861,1.000000,-0.000059,0.000006,0.000002,-2.752388,1.291064,103.023422,0,0,0
28513,637700000,2019,4,30,12,27,47,0,-0.056439,-0.010255,9.808253,-0.485222,0.056963,0.022960,-0.010286,0.002085,0.003004,0.688346,-0.146979,0.066009,-0.000562,-0.000092,0.098083,1.000000,-0.000051,0.000010,0.000015,-2.755566,1.291371,103.032410,0,0,0
28514,647700000,2019,4,30,12,27,47,0,-0.047416,-0.017050,9.818699,-0.485795,0.064742,0.029952,-0.007167,0.005409,0.002348,0.688115,-0.143874,0.071181,-0.000469,-0.000163,0.098187,1.000000,-0.000036,0.000027,0.000012,-2.756958,1.293595,103.032845,0,0,0
28515,657700000,2019,4,30,12,27,47,0,-0.044510,-0.046513,9.819475,-0.454999,0.081148,0.037694,-0.004757,0.006383,0.003080,0.679491,-0.152159,0.070427,-0.000439,-0.000460,0.098195,1.000000,-0.000024,0.000032,0.000015,-2.756950,1.296406,103.030571,0,0,0
28516,667700000,2019,4,30,12,27,47,0,-0.059503,-0.046257,9.799697,-0.449565,0.063205,0.009890,-0.005251,0.007900,0.003991,0.676836,-0.146426,0.070231,-0.000587,-0.000457,0.097997,1.000000,-0.000026,0.000040,0.000020,-2.757230,1.300074,103.038788,0,0,0
28517,677700000,2019,4,30,12,27,47,0,-0.063367,-0.040799,9.793942,-0.452762,0.056290,0.005198,-0.004870,0.003804,0.000027,0.668505,-0.143386,0.069550,-0.000630,-0.000403,0.097939,1.000000,-0.000024,0.000019,0.000000,-2.757333,1.301310,103.038887,0,0,0
28518,687700000,2019,4,30,12,27,47,0,-0.088378,-0.004258,9.797963,-0.482660,0.029160,0.008561,-0.006023,0.002278,0.001585,0.671459,-0.143592,0.067206,-0.000882,-0.000037,0.097980,1.000000,-0.000030,0.000011,0.000008,-2.758065,1.301718,103.038696,0,0,0
28519,697700000,2019,4,30,12,27,47,0,-0.083577,0.011116,9.816638,-0.496509,0.025111,0.020372,-0.004265,-0.000585,0.001243,0.674035,-0.146357,0.069998,-0.000836,0.000115,0.098166,1.000000,-0.000021,-0.000003,0.000006,-2.757795,1.300480,103.038216,0,0,0
28520,707700000,2019,4,30,12,27,47,0,-0.068176,0.006228,9.805347,-0.506833,0.044609,0.022914,-0.008047,-0.000048,0.003983,0.685539,-0.141109,0.068390,-0.000682,0.000070,0.098053,1.000000,-0.000040,-0.000000,0.000020,-2.759657,1.299616,103.041328,0,0,0
28521,717700000,2019,4,30,12,27,47,0,-0.063867,-0.025589,9.821799,-0.472746,0.049138,0.034755,-0.007348,-0.000581,0.001832,0.673961,-0.149188,0.069979,-0.000639,-0.000249,0.098218,1.000000,-0.000037,-0.000003,0.000009,-2.761134,1.298413,103.035957,0,0,0
28522,727700000,2019,4,30,12,27,47,0,-0.050655,-0.052290,9.802421,-0.446113,0.072760,0.018753,-0.008413,0.000153,0.001988,0.682433,-0.140766,0.073311,-0.000506,-0.000515,0.098024,1.000000,-0.000042,0.000001,0.000010,-2.763230,1.297595,103.041290,0,0,0
28523,737700000,2019,4,30,12,27,47,0,-0.048428,-0.044858,9.799250,-0.461744,0.071963,0.013865,-0.008979,0.002832,0.000517,0.676531,-0.146153,0.075384,-0.000481,-0.000440,0.097993,1.000000,-0.000045,0.000014,0.000003,-2.765656,1.298305,103.035271,0,0,0
28524,747700000,2019,4,30,12,27,47,0,-0.038796,-0.023870,9.792490,-0.474921,0.077834,0.011125,-0.008150,0.002661,0.003432,0.677056,-0.137932,0.070286,-0.000385,-0.000231,0.097925,1.000000,-0.000041,0.000013,0.000017,-2.767576,1.298974,103.037903,0,0,0
28525,757700000,2019,4,30,12,27,47,0,-0.061666,-0.006770,9.787539,-0.486061,0.053013,0.004060,-0.010210,0.005015,-0.000014,0.679259,-0.149054,0.075599,-0.000612,-0.000058,0.097875,1.000000,-0.000051,0.000025,-0.000000,-2.770712,1.300921,103.030762,0,0,0
28526,767700000,2019,4,30,12,27,47,0,-0.049197,-0.014097,9.743937,-0.484320,0.060228,-0.042279,-0.008038,0.006077,-0.000247,0.688115,-0.143874,0.071181,-0.000486,-0.000133,0.097439,1.000000,-0.000040,0.000030,-0.000001,-2.772624,1.303432,103.034042,0,0,0
28527,777700000,2019,4,30,12,27,47,0,-0.098960,0.001038,9.790816,-0.489339,0.017348,-0.000030,-0.005841,0.004578,0.001924,0.687974,-0.155337,0.068531,-0.000985,0.000016,0.097908,1.000000,-0.000029,0.000023,0.000010,-2.773231,1.305166,103.031578,0,0,0
28528,787700000,2019,4,30,12,27,47,0,-0.094956,0.005296,9.961694,-0.505572,0.018321,0.167687,-0.003973,0.003953,0.001362,0.690611,-0.143670,0.076568,-0.000946,0.000057,0.099617,1.000000,-0.000020,0.000020,0.000007,-2.772789,1.306489,103.039940,0,0,0
28529,797700000,2019,4,30,12,27,47,0,-0.045584,-0.048715,9.973085,-0.463865,0.072908,0.194832,-0.003618,0.003598,0.001274,0.690769,-0.149607,0.071378,-0.000452,-0.000484,0.099731,1.000000,-0.000018,0.000018,0.000006,-2.772122,1.307651,103.035233,0,0,0
28530,807700000,2019,4,30,12,27,47,0,-0.030803,-0.030937,9.760928,-0.471036,0.086823,-0.012544,-0.008910,0.001698,0.000979,0.682140,-0.152092,0.073237,-0.000306,-0.000301,0.097609,1.000000,-0.000045,0.000008,0.000005,-2.774500,1.307696,103.036888,0,0,0
28531,817700000,2019,4,30,12,27,47,0,-0.075563,-0.022915,9.582960,-0.462396,0.039574,-0.199584,-0.008708,0.001972,0.002158,0.671239,-0.152087,0.067151,-0.000754,-0.000221,0.095830,1.000000,-0.000044,0.000010,0.000011,-2.776751,1.307919,103.042763,0,0,0
28532,827700000,2019,4,30,12,27,47,0,-0.078484,0.010274,9.660830,-0.493940,0.033403,-0.136378,-0.004730,0.002310,0.001628,0.668883,-0.140828,0.064415,-0.000783,0.000107,0.096608,1.000000,-0.000024,0.000012,0.000008,-2.776731,1.308313,103.049873,0,0,0
28533,837700000,2019,4,30,12,27,47,0,-0.072067,-0.001241,9.924049,-0.502806,0.042392,0.120174,-0.004318,-0.000001,0.000070,0.676531,-0.146153,0.075384,-0.000721,-0.000008,0.099240,1.000000,-0.000022,-0.000000,0.000000,-2.776473,1.307375,103.045425,0,0,0
28534,847700000,2019,4,30,12,27,47,0,-0.015885,-0.031082,10.025320,-0.488657,0.104484,0.239508,-0.007122,0.005617,0.001286,0.673657,-0.148915,0.075133,-0.000153,-0.000304,0.100253,1.000000,-0.000036,0.000028,0.000006,-2.777813,1.309677,103.045074,0,0,0
28535,857700000,2019,4,30,12,27,47,0,-0.036287,-0.080424,9.821388,-0.431490,0.093974,0.052517,-0.010907,0.006396,0.000698,0.682061,-0.149124,0.075832,-0.000357,-0.000794,0.098214,1.000000,-0.000055,0.000032,0.000003,-2.781335,1.312395,103.047615,0,0,0
28536,867700000,2019,4,30,12,27,47,0,-0.049937,-0.059825,9.673021,-0.438093,0.078413,-0.103354,-0.009236,0.007009,0.000515,0.671008,-0.148982,0.072323,-0.000493,-0.000589,0.096730,1.000000,-0.000046,0.000035,0.000003,-2.783900,1.315463,103.048172,0,0,0
28537,877700000,2019,4,30,12,27,47,0,-0.064340,-0.033071,9.680514,-0.458401,0.056877,-0.110001,-0.011797,0.005229,-0.000682,0.676830,-0.140627,0.072844,-0.000638,-0.000319,0.096805,1.000000,-0.000059,0.000026,-0.000003,-2.787951,1.317472,103.050163,0,0,0
28538,887700000,2019,4,30,12,27,47,0,-0.049021,0.017267,9.783177,-0.517887,0.064085,-0.013536,-0.009179,0.000829,0.002513,0.682591,-0.146703,0.068120,-0.000489,0.000182,0.097832,1.000000,-0.000046,0.000004,0.000013,-2.790437,1.317077,103.044945,0,0,0
28539,897700000,2019,4,30,12,27,47,0,-0.083204,0.000924,9.832789,-0.502749,0.036154,0.043509,-0.009279,0.003223,0.002337,0.684862,-0.149194,0.076065,-0.000829,0.000018,0.098328,1.000000,-0.000046,0.000016,0.000012,-2.792993,1.318032,103.045250,0,0,0
28540,907700000,2019,4,30,12,27,47,0,-0.068891,-0.020982,9.847591,-0.477479,0.046132,0.063964,-0.004869,0.003447,0.002478,0.688120,-0.149674,0.068568,-0.000686,-0.000205,0.098476,1.000000,-0.000024,0.000017,0.000012,-2.793014,1.319113,103.047165,0,0,0
28541,917700000,2019,4,30,12,27,47,0,-0.082217,-0.021910,9.847285,-0.491094,0.027046,0.055036,-0.006888,0.000466,0.001182,0.676994,-0.152363,0.065040,-0.000822,-0.000212,0.098473,1.000000,-0.000034,0.000002,0.000006,-2.794210,1.318451,103.048439,0,0,0
28542,927700000,2019,4,30,12,27,47,0,-0.054855,-0.031516,9.829047,-0.479904,0.067340,0.054740,-0.002873,0.003358,-0.000381,0.676904,-0.137795,0.072863,-0.000545,-0.000312,0.098291,1.000000,-0.000014,0.000017,-0.000002,-2.793134,1.319385,103.053413,0,0,0
28543,937700000,2019,4,30,12,27,47,0,-0.070232,-0.023600,9.753622,-0.478034,0.049691,-0.030757,-0.008354,0.003382,0.001242,0.679333,-0.146223,0.075617,-0.000699,-0.000228,0.097536,1.000000,-0.000042,0.000017,0.000006,-2.795152,1.320424,103.044792,0,0,0
28544,947700000,2019,4,30,12,27,47,0,-0.055702,-0.008626,9.727826,-0.491106,0.053145,-0.053421,-0.007702,0.001312,0.001102,0.668579,-0.140554,0.069568,-0.000556,-0.000079,0.097278,1.000000,-0.000039,0.000007,0.000006,-2.796810,1.320246,103.044678,0,0,0
28545,957700000,2019,4,30,12,27,47,0,-0.079626,-0.000587,9.808637,-0.503583,0.033864,0.014917,-0.008716,0.001929,0.000721,0.679558,-0.143528,0.073059,-0.000794,0.000003,0.098086,1.000000,-0.000044,0.000010,0.000004,-2.799044,1.320420,103.041618,0,0,0
28546,967700000,2019,4,30,12,27,47,0,-0.069906,-0.012065,9.872366,-0.490344,0.051338,0.084631,-0.009983,0.002423,0.000786,0.682213,-0.149261,0.073255,-0.000697,-0.000111,0.098724,1.000000,-0.000050,0.000012,0.000004,-2.802006,1.320876,103.039398,0,0,0
28547,977700000,2019,4,30,12,27,47,0,-0.056904,-0.027779,9.869231,-0.486708,0.066651,0.085004,-0.012185,0.001562,0.000334,0.688194,-0.146842,0.068586,-0.000567,-0.000266,0.098692,1.000000,-0.000061,0.000008,0.000002,-2.806233,1.320810,103.041969,0,0,0
28548,987700000,2019,4,30,12,27,47,0,-0.038104,-0.061657,9.802850,-0.447837,0.086176,0.018759,-0.008154,0.007723,0.001506,0.668127,-0.145943,0.074685,-0.000373,-0.000609,0.098029,1.000000,-0.000041,0.000039,0.000008,-2.808138,1.324311,103.041389,0,0,0
28549,997700000,2019,4,30,12,27,47,0,-0.038042,-0.037376,9.754785,-0.470753,0.086392,-0.029952,-0.012362,0.004384,0.003494,0.682659,-0.138071,0.070752,-0.000376,-0.000362,0.097548,1.000000,-0.000062,0.000022,0.000017,-2.812423,1.325946,103.044907,0,0,0
28550,7700000,2019,4,30,12,27,48,0,-0.060266,-0.021041,9.761351,-0.481606,0.060193,-0.023194,-0.004883,0.004537,0.000706,0.682286,-0.146429,0.073274,-0.000598,-0.000206,0.097614,1.000000,-0.000024,0.000023,0.000004,-2.812454,1.327624,103.036758,0,0,0
28551,17700000,2019,4,30,12,27,48,0,-0.060967,-0.012331,9.796212,-0.497562,0.056113,0.000496,-0.006673,0.002533,-0.001067,0.687060,-0.154516,0.083992,-0.000607,-0.000117,0.097962,1.000000,-0.000033,0.000013,-0.000005,-2.813539,1.328076,103.036369,0,0,0
28552,27700000,2019,4,30,12,27,48,0,-0.073324,-0.029193,9.842671,-0.476276,0.050854,0.049817,-0.002259,0.005206,0.002378,0.682811,-0.138208,0.068175,-0.000728,-0.000290,0.098427,1.000000,-0.000011,0.000026,0.000012,-2.812053,1.330135,103.043480,0,0,0
28553,37700000,2019,4,30,12,27,48,0,-0.048695,-0.021139,9.856527,-0.490207,0.067321,0.071154,-0.002078,0.003846,0.002795,0.670861,-0.154645,0.072286,-0.000483,-0.000209,0.098565,1.000000,-0.000010,0.000019,0.000014,-2.810433,1.331469,103.036842,0,0,0
28554,47700000,2019,4,30,12,27,48,0,-0.058031,-0.030420,9.819399,-0.475331,0.061048,0.036268,-0.004425,0.003123,0.000421,0.687816,-0.149400,0.073721,-0.000577,-0.000300,0.098194,1.000000,-0.000022,0.000016,0.000002,-2.810213,1.332269,103.046715,0,0,0
28555,57700000,2019,4,30,12,27,48,0,-0.046323,-0.040957,9.780062,-0.466580,0.081149,-0.000503,-0.006992,0.003019,0.002505,0.676909,-0.143595,0.070249,-0.000460,-0.000403,0.097801,1.000000,-0.000035,0.000015,0.000013,-2.811420,1.333096,103.048187,0,0,0
28556,67700000,2019,4,30,12,27,48,0,-0.057226,-0.027428,9.782982,-0.479748,0.064454,-0.004612,-0.008433,0.001258,0.000418,0.685088,-0.146499,0.073507,-0.000571,-0.000266,0.097830,1.000000,-0.000042,0.000006,0.000002,-2.813476,1.332865,103.045525,0,0,0
28557,77700000,2019,4,30,12,27,48,0,-0.054125,-0.012471,9.795594,-0.498653,0.067048,0.008294,-0.011128,0.003849,0.000076,0.673956,-0.143388,0.072593,-0.000537,-0.000114,0.097956,1.000000,-0.000056,0.000019,0.000000,-2.817083,1.334102,103.043869,0,0,0
28558,87700000,2019,4,30,12,27,48,0,-0.062995,-0.032224,9.810309,-0.474860,0.054771,0.028125,-0.009175,0.001820,0.000241,0.679942,-0.146770,0.065310,-0.000628,-0.000313,0.098103,1.000000,-0.000046,0.000009,0.000001,-2.819563,1.334184,103.041939,0,0,0
28559,97700000,2019,4,30,12,27,48,0,-0.059824,-0.030042,9.824707,-0.486890,0.059439,0.036750,-0.012059,0.001568,0.002080,0.679936,-0.140970,0.067924,-0.000597,-0.000289,0.098247,1.000000,-0.000060,0.000008,0.000010,-2.823678,1.334165,103.043526,0,0,0
28560,107700000,2019,4,30,12,27,48,0,-0.058727,-0.041122,9.838970,-0.471300,0.063335,0.052401,-0.008224,0.004488,0.003466,0.676537,-0.151953,0.072771,-0.000583,-0.000403,0.098390,1.000000,-0.000041,0.000022,0.000017,-2.825565,1.335870,103.040421,0,0,0
28561,117700000,2019,4,30,12,27,48,0,-0.068602,-0.028609,9.819609,-0.483857,0.049942,0.036767,-0.007618,0.005414,0.001239,0.685618,-0.144078,0.065795,-0.000681,-0.000279,0.098196,1.000000,-0.000038,0.000027,0.000006,-2.827152,1.338012,103.046783,0,0,0
28562,127700000,2019,4,30,12,27,48,0,-0.071668,-0.012697,9.769015,-0.489920,0.045469,-0.015023,-0.005478,0.002935,-0.000059,0.679863,-0.143801,0.067905,-0.000714,-0.000122,0.097690,1.000000,-0.000027,0.000015,-0.000000,-2.827513,1.338725,103.043137,0,0,0
28563,137700000,2019,4,30,12,27,48,0,-0.051455,-0.011888,9.774278,-0.496161,0.065500,-0.015933,-0.005969,0.002830,0.000725,0.679711,-0.143665,0.070482,-0.000512,-0.000113,0.097743,1.000000,-0.000030,0.000014,0.000004,-2.828149,1.339393,103.041168,0,0,0
28564,147700000,2019,4,30,12,27,48,0,-0.069135,-0.015271,9.811284,-0.492190,0.049711,0.026317,-0.003823,0.003259,0.000634,0.682292,-0.152229,0.070660,-0.000688,-0.000149,0.098113,1.000000,-0.000019,0.000016,0.000003,-2.827548,1.340306,103.039223,0,0,0
28565,157700000,2019,4,30,12,27,48,0,-0.057385,-0.016633,9.852135,-0.497590,0.063547,0.066688,-0.003463,0.002383,0.002873,0.676909,-0.143595,0.070249,-0.000571,-0.000163,0.098521,1.000000,-0.000017,0.000012,0.000014,-2.826715,1.340758,103.045792,0,0,0
28566,167700000,2019,4,30,12,27,48,0,-0.054251,-0.038686,9.831906,-0.476251,0.069562,0.047437,-0.005882,0.002552,0.003676,0.685685,-0.135446,0.068427,-0.000540,-0.000381,0.098319,1.000000,-0.000029,0.000013,0.000018,-2.827250,1.341350,103.045372,0,0,0
28567,177700000,2019,4,30,12,27,48,0,-0.056689,-0.016803,9.803505,-0.490645,0.065505,0.020250,-0.005520,0.002044,0.002166,0.671239,-0.152087,0.067151,-0.000565,-0.000163,0.098035,1.000000,-0.000028,0.000010,0.000011,-2.827587,1.341630,103.035820,0,0,0
28568,187700000,2019,4,30,12,27,48,0,-0.069850,-0.024939,9.771774,-0.480404,0.052540,-0.015198,-0.007350,-0.001992,0.001330,0.660321,-0.134682,0.068906,-0.000700,-0.000242,0.097718,1.000000,-0.000037,-0.000010,0.000007,-2.829001,1.339527,103.044655,0,0,0
28569,197700000,2019,4,30,12,27,48,0,-0.034693,-0.011922,9.786959,-0.503428,0.079736,-0.006107,-0.010208,0.000666,0.000756,0.682207,-0.143461,0.075869,-0.000346,-0.000109,0.097870,1.000000,-0.000051,0.000003,0.000004,-2.832041,1.338967,103.038490,0,0,0
28570,207700000,2019,4,30,12,27,48,0,-0.059880,-0.020402,9.819247,-0.490959,0.061498,0.031677,-0.012026,0.005599,-0.000013,0.679564,-0.149328,0.070445,-0.000593,-0.000192,0.098193,1.000000,-0.000060,0.000028,-0.000000,-2.836140,1.341195,103.035934,0,0,0
28571,217700000,2019,4,30,12,27,48,0,-0.058882,-0.015119,9.817712,-0.492012,0.067314,0.031908,-0.008158,0.004426,0.002045,0.677287,-0.141037,0.065114,-0.000584,-0.000143,0.098177,1.000000,-0.000041,0.000022,0.000010,-2.837998,1.342792,103.040581,0,0,0
28572,227700000,2019,4,30,12,27,48,0,-0.071780,-0.022279,9.817541,-0.494055,0.044519,0.032752,-0.010064,0.002505,0.000614,0.682585,-0.140903,0.070734,-0.000715,-0.000213,0.098175,1.000000,-0.000050,0.000013,0.000003,-2.840957,1.343269,103.037292,0,0,0
28573,237700000,2019,4,30,12,27,48,0,-0.039482,-0.030794,9.809924,-0.487718,0.076790,0.023120,-0.007787,0.004008,0.002001,0.679942,-0.146770,0.065310,-0.000391,-0.000300,0.098099,1.000000,-0.000039,0.000020,0.000010,-2.842599,1.344650,103.033859,0,0,0
28574,247700000,2019,4,30,12,27,48,0,-0.063397,-0.030312,9.794528,-0.483814,0.056378,0.011243,-0.006823,0.004133,-0.000345,0.685387,-0.140973,0.070967,-0.000630,-0.000296,0.097945,1.000000,-0.000034,0.000021,-0.000002,-2.843720,1.346015,103.035370,0,0,0
28575,257700000,2019,4,30,12,27,48,0,-0.065164,-0.024136,9.807312,-0.488321,0.058556,0.020955,-0.004199,0.000166,0.001987,0.679637,-0.146496,0.070464,-0.000651,-0.000237,0.098073,1.000000,-0.000021,0.000001,0.000010,-2.843294,1.345193,103.031715,0,0,0
28576,267700000,2019,4,30,12,27,48,0,-0.084760,-0.003269,9.795400,-0.503792,0.035174,0.003402,-0.003551,0.003862,0.000253,0.676983,-0.140763,0.070268,-0.000844,-0.000029,0.097954,1.000000,-0.000018,0.000019,0.000001,-2.842519,1.346415,103.033302,0,0,0
28577,277700000,2019,4,30,12,27,48,0,-0.044955,-0.018973,9.826914,-0.498309,0.071687,0.045047,-0.003038,-0.002398,0.002289,0.687889,-0.146569,0.073740,-0.000452,-0.000187,0.098269,1.000000,-0.000015,-0.000012,0.000011,-2.841415,1.344126,103.031448,0,0,0
28578,287700000,2019,4,30,12,27,48,0,-0.062434,-0.039360,9.822540,-0.476758,0.060998,0.035882,-0.006421,0.001289,0.002969,0.679485,-0.146359,0.073041,-0.000623,-0.000387,0.098225,1.000000,-0.000032,0.000006,0.000015,-2.842245,1.343960,103.032997,0,0,0
28579,297700000,2019,4,30,12,27,48,0,-0.030296,-0.015481,9.816441,-0.507257,0.089183,0.031207,-0.007239,-0.000471,0.001631,0.684789,-0.152025,0.076047,-0.000303,-0.000148,0.098164,1.000000,-0.000036,-0.000002,0.000008,-2.843557,1.342742,103.034988,0,0,0
28580,307700000,2019,4,30,12,27,48,0,-0.045568,-0.042907,9.799287,-0.475459,0.083781,0.016240,-0.010076,0.002487,0.000054,0.687816,-0.149400,0.073721,-0.000453,-0.000419,0.097993,1.000000,-0.000050,0.000012,0.000000,-2.846524,1.343166,103.039284,0,0,0
28581,317700000,2019,4,30,12,27,48,0,-0.064323,-0.017657,9.785495,-0.492462,0.048236,-0.002553,-0.007012,0.006675,0.001007,0.682890,-0.141176,0.065580,-0.000637,-0.000170,0.097855,1.000000,-0.000035,0.000033,0.000005,-2.847720,1.346020,103.040550,0,0,0
28582,327700000,2019,4,30,12,27,48,0,-0.069870,-0.008551,9.810087,-0.500166,0.050859,0.021045,-0.010720,0.007328,-0.000282,0.685094,-0.152299,0.070893,-0.000692,-0.000075,0.098101,1.000000,-0.000054,0.000037,-0.000001,-2.851045,1.349223,103.035194,0,0,0
28583,337700000,2019,4,30,12,27,48,0,-0.070832,-0.007925,9.819919,-0.503200,0.049500,0.029474,-0.008965,0.006290,-0.000107,0.685539,-0.141109,0.068390,-0.000702,-0.000070,0.098199,1.000000,-0.000045,0.000031,-0.000001,-2.853369,1.351811,103.039330,0,0,0
28584,347700000,2019,4,30,12,27,48,0,-0.059904,-0.019567,9.823871,-0.497575,0.061581,0.036792,-0.009650,0.004885,0.002155,0.682281,-0.140629,0.075887,-0.000594,-0.000186,0.098239,1.000000,-0.000048,0.000024,0.000011,-2.856050,1.353686,103.034706,0,0,0
28585,357700000,2019,4,30,12,27,48,0,-0.068356,-0.033205,9.803953,-0.484357,0.057934,0.014544,-0.007180,0.001906,0.002017,0.685392,-0.146772,0.068353,-0.000682,-0.000325,0.098040,1.000000,-0.000036,0.000010,0.000010,-2.857308,1.353852,103.030769,0,0,0
28586,367700000,2019,4,30,12,27,48,0,-0.074360,-0.020363,9.808013,-0.494987,0.041717,0.017411,-0.007957,0.001749,-0.001338,0.684941,-0.152162,0.073470,-0.000742,-0.000196,0.098080,1.000000,-0.000040,0.000009,-0.000007,-2.859061,1.353815,103.030479,0,0,0
28587,377700000,2019,4,30,12,27,48,0,-0.058125,-0.032947,9.796968,-0.479034,0.063558,0.011142,-0.005399,-0.000100,0.001933,0.676684,-0.146290,0.072807,-0.000581,-0.000324,0.097970,1.000000,-0.000027,-0.000001,0.000010,-2.859303,1.352805,103.036148,0,0,0
28588,387700000,2019,4,30,12,27,48,0,-0.048695,-0.033003,9.786778,-0.488999,0.072036,-0.002736,-0.005888,-0.000264,-0.000780,0.684795,-0.157825,0.073433,-0.000487,-0.000324,0.097868,1.000000,-0.000029,-0.000001,-0.000004,-2.859854,1.351630,103.036011,0,0,0
28589,397700000,2019,4,30,12,27,48,0,-0.048157,-0.044307,9.820366,-0.470250,0.084950,0.036502,-0.006910,0.000735,0.001322,0.690538,-0.146502,0.076550,-0.000481,-0.000436,0.098204,1.000000,-0.000035,0.000004,0.000007,-2.860971,1.351069,103.044968,0,0,0
28590,407700000,2019,4,30,12,27,48,0,-0.039050,-0.047594,9.806140,-0.467127,0.088977,0.014740,-0.007731,0.000732,-0.000108,0.676690,-0.152089,0.070194,-0.000390,-0.000468,0.098061,1.000000,-0.000039,0.000004,-0.000001,-2.862563,1.350490,103.041222,0,0,0
28591,417700000,2019,4,30,12,27,48,0,-0.036580,-0.014707,9.810426,-0.504608,0.080877,0.025817,-0.007457,0.004250,0.001812,0.679333,-0.146223,0.075617,-0.000362,-0.000140,0.098104,1.000000,-0.000037,0.000021,0.000009,-2.863982,1.351962,103.046379,0,0,0
28592,427700000,2019,4,30,12,27,48,0,-0.060162,-0.001099,9.800717,-0.521668,0.046448,0.016593,-0.007738,0.005373,0.002956,0.682585,-0.140903,0.070734,-0.000596,-0.000003,0.098007,1.000000,-0.000039,0.000027,0.000015,-2.865542,1.354125,103.045914,0,0,0
28593,437700000,2019,4,30,12,27,48,0,-0.079819,0.002558,9.797718,-0.516036,0.037678,0.011167,-0.006987,0.005176,0.000567,0.674407,-0.137999,0.067476,-0.000793,0.000032,0.097977,1.000000,-0.000035,0.000026,0.000003,-2.866694,1.356113,103.039658,0,0,0
28594,447700000,2019,4,30,12,27,48,0,-0.073891,-0.002983,9.823076,-0.518733,0.043427,0.038155,-0.006507,0.009821,0.001947,0.671154,-0.143319,0.072360,-0.000729,-0.000023,0.098231,1.000000,-0.000033,0.000049,0.000010,-2.867554,1.360796,103.034256,0,0,0
28595,457700000,2019,4,30,12,27,48,0,-0.065759,-0.036186,9.813365,-0.483186,0.060221,0.023121,-0.010569,0.006667,0.003407,0.690392,-0.152165,0.076513,-0.000651,-0.000352,0.098134,1.000000,-0.000053,0.000033,0.000017,-2.870721,1.363704,103.035446,0,0,0
28596,467700000,2019,4,30,12,27,48,0,-0.071381,-0.032162,9.794893,-0.482077,0.057423,0.011845,-0.008059,0.002532,0.000345,0.676842,-0.152226,0.067617,-0.000711,-0.000314,0.097949,1.000000,-0.000040,0.000013,0.000002,-2.872490,1.364152,103.038689,0,0,0
28597,477700000,2019,4,30,12,27,48,0,-0.057194,-0.061608,9.820013,-0.461737,0.072893,0.028289,-0.010648,-0.000485,0.001954,0.680015,-0.143938,0.065329,-0.000572,-0.000606,0.098200,1.000000,-0.000053,-0.000002,0.000010,-2.875722,1.362913,103.045120,0,0,0
28598,487700000,2019,4,30,12,27,48,0,-0.061663,-0.012685,9.805922,-0.506846,0.058456,0.015512,-0.010124,-0.001740,0.000133,0.685161,-0.143667,0.073525,-0.000618,-0.000117,0.098059,1.000000,-0.000051,-0.000009,0.000001,-2.878670,1.360920,103.042328,0,0,0
28599,497700000,2019,4,30,12,27,48,0,-0.072468,-0.003228,9.793791,-0.508860,0.046998,0.008943,-0.005983,0.000233,0.002679,0.682061,-0.149124,0.075832,-0.000724,-0.000026,0.097938,1.000000,-0.000030,0.000001,0.000013,-2.879204,1.360131,103.039871,0,0,0
28600,507700000,2019,4,30,12,27,48,0,-0.046230,-0.015175,9.785026,-0.507942,0.071587,-0.000035,-0.006279,0.002814,0.000742,0.676983,-0.140763,0.070268,-0.000460,-0.000146,0.097850,1.000000,-0.000031,0.000014,0.000004,-2.879940,1.360750,103.041771,0,0,0
28601,517700000,2019,4,30,12,27,48,0,-0.048357,-0.030364,9.802682,-0.487805,0.074755,0.019543,-0.005403,0.004285,-0.000647,0.676385,-0.151816,0.075347,-0.000479,-0.000298,0.098027,1.000000,-0.000027,0.000021,-0.000003,-2.880187,1.362184,103.036690,0,0,0
28602,527700000,2019,4,30,12,27,48,0,-0.047936,-0.040641,9.806376,-0.482650,0.080379,0.015348,-0.006859,0.005924,0.001328,0.673956,-0.143388,0.072593,-0.000474,-0.000400,0.098064,1.000000,-0.000034,0.000030,0.000007,-2.881248,1.364591,103.042313,0,0,0
28603,537700000,2019,4,30,12,27,48,0,-0.056666,-0.037935,9.817644,-0.487795,0.065422,0.025229,-0.004426,0.006266,0.002908,0.677062,-0.143732,0.067672,-0.000561,-0.000375,0.098176,1.000000,-0.000022,0.000031,0.000015,-2.880880,1.367252,103.041542,0,0,0
28604,547700000,2019,4,30,12,27,48,0,-0.041462,-0.030300,9.809184,-0.498217,0.083702,0.021189,-0.007790,0.003179,-0.000036,0.675928,-0.151406,0.083078,-0.000412,-0.000295,0.098092,1.000000,-0.000039,0.000016,-0.000000,-2.882476,1.368058,103.039467,0,0,0
28605,557700000,2019,4,30,12,27,48,0,-0.064026,-0.038796,9.804012,-0.480729,0.062981,0.016563,-0.009946,0.002215,0.001864,0.676757,-0.143458,0.072826,-0.000638,-0.000378,0.098040,1.000000,-0.000050,0.000011,0.000009,-2.885293,1.368357,103.044487,0,0,0
28606,567700000,2019,4,30,12,27,48,0,-0.067936,-0.009229,9.823989,-0.505996,0.052941,0.038590,-0.009747,0.004608,0.003514,0.684935,-0.146362,0.076084,-0.000675,-0.000083,0.098240,1.000000,-0.000049,0.000023,0.000018,-2.887968,1.370087,103.043510,0,0,0
28607,577700000,2019,4,30,12,27,48,0,-0.073232,-0.023523,9.803519,-0.496738,0.057238,0.011838,-0.009251,0.000299,0.001254,0.679412,-0.149191,0.073022,-0.000732,-0.000226,0.098035,1.000000,-0.000046,0.000001,0.000006,-2.890382,1.369284,103.042549,0,0,0
28608,587700000,2019,4,30,12,27,48,0,-0.045990,-0.015139,9.788939,-0.509657,0.075609,-0.000248,-0.008595,0.000288,-0.000354,0.676605,-0.143321,0.075403,-0.000460,-0.000143,0.097889,1.000000,-0.000043,0.000001,-0.000002,-2.892444,1.368420,103.044266,0,0,0
28609,597700000,2019,4,30,12,27,48,0,-0.069294,-0.030735,9.804410,-0.493873,0.051373,0.018472,-0.007540,0.003435,0.001648,0.679406,-0.143391,0.075636,-0.000690,-0.000300,0.098044,1.000000,-0.000038,0.000017,0.000008,-2.893872,1.369422,103.042244,0,0,0
28610,607700000,2019,4,30,12,27,48,0,-0.058434,-0.019969,9.820329,-0.499804,0.064205,0.035246,-0.005006,0.004539,0.003228,0.676988,-0.146563,0.067654,-0.000580,-0.000195,0.098203,1.000000,-0.000025,0.000023,0.000016,-2.893821,1.371099,103.041039,0,0,0
28611,617700000,2019,4,30,12,27,48,0,-0.076473,-0.016337,9.826137,-0.507618,0.045426,0.040753,-0.005166,0.004997,-0.000944,0.677062,-0.143732,0.067672,-0.000760,-0.000158,0.098261,1.000000,-0.000026,0.000025,-0.000005,-2.893919,1.372910,103.041161,0,0,0
28612,627700000,2019,4,30,12,27,48,0,-0.063237,-0.009920,9.814569,-0.511804,0.059846,0.026381,-0.005233,0.004912,-0.000706,0.673663,-0.154714,0.072519,-0.000628,-0.000094,0.098146,1.000000,-0.000026,0.000025,-0.000004,-2.894046,1.374683,103.038902,0,0,0
28613,637700000,2019,4,30,12,27,48,0,-0.050456,-0.019105,9.782366,-0.504884,0.076882,-0.000162,-0.004374,0.009127,-0.002272,0.671154,-0.143319,0.072360,-0.000496,-0.000187,0.097824,1.000000,-0.000022,0.000046,-0.000011,-2.893714,1.378806,103.045082,0,0,0
28614,647700000,2019,4,30,12,27,48,0,-0.049905,-0.028532,9.785225,-0.494994,0.076137,-0.006659,-0.006978,0.006527,0.001923,0.688041,-0.146705,0.071163,-0.000493,-0.000279,0.097852,1.000000,-0.000035,0.000033,0.000010,-2.894805,1.381578,103.043594,0,0,0
28615,657700000,2019,4,30,12,27,48,0,-0.053414,-0.048672,9.812824,-0.478967,0.076436,0.025894,-0.008501,-0.000163,0.002793,0.676915,-0.149395,0.067635,-0.000534,-0.000478,0.098128,1.000000,-0.000043,-0.000001,0.000014,-2.896751,1.380547,103.043068,0,0,0
28616,667700000,2019,4,30,12,27,48,0,-0.071843,-0.028194,9.817659,-0.492858,0.051921,0.030994,-0.009505,-0.000210,0.000375,0.682433,-0.140766,0.073311,-0.000719,-0.000273,0.098177,1.000000,-0.000048,-0.000001,0.000002,-2.899303,1.379408,103.045700,0,0,0
28617,677700000,2019,4,30,12,27,48,0,-0.060993,-0.013416,9.815778,-0.517823,0.057926,0.032109,-0.011660,-0.000670,0.000014,0.671160,-0.149118,0.069746,-0.000611,-0.000123,0.098158,1.000000,-0.000058,-0.000003,0.000000,-2.903088,1.378011,103.039520,0,0,0
28618,687700000,2019,4,30,12,27,48,0,-0.054563,0.012465,9.793069,-0.537317,0.058319,-0.000667,-0.011102,-0.001234,0.000232,0.676757,-0.143458,0.072826,-0.000547,0.000136,0.097931,1.000000,-0.000056,-0.000006,0.000001,-2.906557,1.376280,103.043297,0,0,0
28619,697700000,2019,4,30,12,27,48,0,-0.074451,-0.018881,9.793777,-0.505754,0.044811,0.007670,-0.009545,0.000554,0.000761,0.682811,-0.138208,0.068175,-0.000744,-0.000179,0.097938,1.000000,-0.000048,0.000003,0.000004,-2.909120,1.375599,103.040955,0,0,0
28620,707700000,2019,4,30,12,27,48,0,-0.057286,-0.037540,9.793553,-0.492968,0.064671,0.003624,-0.007937,0.004785,0.002580,0.690764,-0.143807,0.073991,-0.000568,-0.000368,0.097936,1.000000,-0.000040,0.000024,0.000013,-2.910728,1.377396,103.034882,0,0,0
28621,717700000,2019,4,30,12,27,48,0,-0.069625,-0.030926,9.810814,-0.496564,0.056620,0.021822,-0.002803,0.007492,0.001153,0.679863,-0.143801,0.067905,-0.000689,-0.000307,0.098108,1.000000,-0.000014,0.000037,0.000006,-2.909418,1.380694,103.031906,0,0,0
28622,727700000,2019,4,30,12,27,48,0,-0.055267,-0.031317,9.811846,-0.497622,0.069919,0.020797,-0.003867,0.005180,-0.000762,0.671154,-0.143319,0.072360,-0.000548,-0.000309,0.098119,1.000000,-0.000019,0.000026,-0.000004,-2.908741,1.382607,103.030403,0,0,0
28623,737700000,2019,4,30,12,27,48,0,-0.043833,-0.029218,9.792061,-0.500791,0.078930,0.007375,-0.008763,-0.000943,0.000523,0.676977,-0.134963,0.072881,-0.000439,-0.000284,0.097921,1.000000,-0.000044,-0.000005,0.000003,-2.910846,1.381056,103.030701,0,0,0
28624,747700000,2019,4,30,12,27,48,0,-0.056981,-0.011929,9.798755,-0.507719,0.068041,0.007952,-0.007989,0.000909,0.000738,0.687743,-0.152232,0.073703,-0.000569,-0.000111,0.097988,1.000000,-0.000040,0.000005,0.000004,-2.912493,1.380576,103.023232,0,0,0
28625,757700000,2019,4,30,12,27,48,0,-0.074793,-0.009689,9.800876,-0.516489,0.043485,0.008994,-0.007618,-0.001664,0.002021,0.682817,-0.144008,0.065562,-0.000750,-0.000089,0.098009,1.000000,-0.000038,-0.000008,0.000010,-2.913922,1.378642,103.029556,0,0,0
28626,767700000,2019,4,30,12,27,48,0,-0.047285,-0.033527,9.806611,-0.492157,0.077311,0.022685,-0.005349,0.002866,0.004179,0.679643,-0.152296,0.067850,-0.000470,-0.000330,0.098066,1.000000,-0.000027,0.000014,0.000021,-2.914016,1.379369,103.030540,0,0,0
28627,777700000,2019,4,30,12,27,48,0,-0.051288,-0.031701,9.794104,-0.500557,0.076549,0.007079,-0.008504,0.003308,0.000689,0.687663,-0.149263,0.076298,-0.000510,-0.000309,0.097941,1.000000,-0.000043,0.000017,0.000003,-2.915973,1.380239,103.036507,0,0,0
28628,787700000,2019,4,30,12,27,48,0,-0.046267,-0.016898,9.799380,-0.508876,0.081006,0.009897,-0.009845,0.002230,0.002404,0.679643,-0.152296,0.067850,-0.000460,-0.000159,0.097994,1.000000,-0.000049,0.000011,0.000012,-2.918665,1.380548,103.038307,0,0,0
28629,797700000,2019,4,30,12,27,48,0,-0.073376,-0.017201,9.808857,-0.509739,0.051199,0.019784,-0.011609,0.003067,-0.000067,0.676690,-0.152089,0.070194,-0.000731,-0.000161,0.098089,1.000000,-0.000058,0.000015,-0.000000,-2.922405,1.381258,103.042572,0,0,0
28630,807700000,2019,4,30,12,27,48,0,-0.060440,-0.021092,9.820542,-0.501417,0.068135,0.033787,-0.008290,0.005847,0.000355,0.682213,-0.149261,0.073255,-0.000599,-0.000203,0.098205,1.000000,-0.000041,0.000029,0.000002,-2.924233,1.383572,103.046440,0,0,0
28631,817700000,2019,4,30,12,27,48,0,-0.065973,-0.026249,9.802440,-0.504938,0.063575,0.018826,-0.005658,0.004841,-0.000441,0.685460,-0.138141,0.070985,-0.000655,-0.000257,0.098024,1.000000,-0.000028,0.000024,-0.000002,-2.924556,1.385290,103.045982,0,0,0
28632,827700000,2019,4,30,12,27,48,0,-0.064958,-0.025965,9.780507,-0.500078,0.059418,-0.010859,-0.003978,0.001660,0.000391,0.685466,-0.143941,0.068372,-0.000648,-0.000256,0.097805,1.000000,-0.000020,0.000008,0.000002,-2.923898,1.385223,103.036957,0,0,0
28633,837700000,2019,4,30,12,27,48,0,-0.064934,-0.006536,9.803387,-0.521399,0.057772,0.011606,-0.006986,0.005179,0.001495,0.679643,-0.152296,0.067850,-0.000644,-0.000059,0.098034,1.000000,-0.000035,0.000026,0.000007,-2.924945,1.387190,103.034630,0,0,0
28634,847700000,2019,4,30,12,27,48,0,-0.063819,-0.018670,9.820611,-0.505911,0.066989,0.031407,-0.002917,-0.001914,0.002242,0.676830,-0.140627,0.072844,-0.000640,-0.000184,0.098206,1.000000,-0.000015,-0.000010,0.000011,-2.923655,1.385113,103.040863,0,0,0
28635,857700000,2019,4,30,12,27,48,0,-0.062276,0.004950,9.815627,-0.535134,0.054519,0.027817,-0.002935,0.000270,0.000338,0.676830,-0.140627,0.072844,-0.000622,0.000052,0.098156,1.000000,-0.000015,0.000001,0.000002,-2.922391,1.384240,103.036140,0,0,0
28636,867700000,2019,4,30,12,27,48,0,-0.079616,-0.023066,9.802727,-0.496785,0.046127,0.020775,-0.005907,0.001006,0.001806,0.690685,-0.140839,0.076587,-0.000795,-0.000225,0.098027,1.000000,-0.000030,0.000005,0.000009,-2.922810,1.383828,103.033012,0,0,0
28637,877700000,2019,4,30,12,27,48,0,-0.043586,-0.019458,9.796090,-0.517971,0.073298,0.003455,-0.005733,0.000232,0.004655,0.671532,-0.140761,0.067225,-0.000436,-0.000189,0.097961,1.000000,-0.000029,0.000001,0.000023,-2.923082,1.383060,103.029800,0,0,0
28638,887700000,2019,4,30,12,27,48,0,-0.044321,-0.032413,9.777355,-0.500993,0.076882,-0.009338,-0.006962,0.004080,-0.000523,0.684862,-0.149194,0.076065,-0.000439,-0.000317,0.097774,1.000000,-0.000035,0.000020,-0.000003,-2.924137,1.384337,103.027794,0,0,0
28639,897700000,2019,4,30,12,27,48,0,-0.042007,-0.024407,9.810953,-0.509323,0.084158,0.020879,-0.007716,0.003561,-0.000796,0.690239,-0.152028,0.079090,-0.000417,-0.000236,0.098110,1.000000,-0.000039,0.000018,-0.000004,-2.925639,1.385307,103.029663,0,0,0
28640,907700000,2019,4,30,12,27,48,0,-0.060860,-0.036868,9.807260,-0.493653,0.064575,0.022982,-0.010087,0.005476,0.002113,0.679564,-0.149328,0.070445,-0.000603,-0.000359,0.098073,1.000000,-0.000050,0.000027,0.000011,-2.928444,1.387450,103.033730,0,0,0
28641,917700000,2019,4,30,12,27,48,0,-0.058194,-0.013910,9.819148,-0.519391,0.070483,0.033827,-0.012543,0.003155,0.003276,0.679491,-0.152159,0.070427,-0.000579,-0.000127,0.098192,1.000000,-0.000063,0.000016,0.000016,-2.932646,1.388303,103.037903,0,0,0
28642,927700000,2019,4,30,12,27,48,0,-0.072876,-0.014338,9.811349,-0.508931,0.045992,0.026189,-0.010571,0.001679,0.001237,0.676605,-0.143321,0.075403,-0.000727,-0.000133,0.098114,1.000000,-0.000053,0.000008,0.000006,-2.935738,1.388247,103.042603,0,0,0
28643,937700000,2019,4,30,12,27,48,0,-0.059851,-0.017256,9.796232,-0.512879,0.064771,0.007046,-0.008946,0.003285,0.001455,0.668048,-0.142975,0.077280,-0.000595,-0.000164,0.097962,1.000000,-0.000045,0.000016,0.000007,-2.937886,1.389122,103.040115,0,0,0
28644,947700000,2019,4,30,12,27,48,0,-0.073074,-0.025587,9.792490,-0.501955,0.053267,0.004239,-0.007009,0.000607,0.001596,0.668207,-0.148912,0.072090,-0.000730,-0.000249,0.097925,1.000000,-0.000035,0.000003,0.000008,-2.938926,1.388468,103.039337,0,0,0
28645,957700000,2019,4,30,12,27,48,0,-0.062554,-0.017915,9.800460,-0.513053,0.058880,0.016207,-0.004442,0.002756,0.001428,0.670923,-0.140213,0.077532,-0.000623,-0.000175,0.098005,1.000000,-0.000022,0.000014,0.000007,-2.938497,1.389030,103.043404,0,0,0
28646,967700000,2019,4,30,12,27,48,0,-0.057150,-0.044189,9.814076,-0.488591,0.070719,0.030749,-0.006668,0.002832,0.001734,0.676836,-0.146426,0.070231,-0.000569,-0.000435,0.098141,1.000000,-0.000033,0.000014,0.000009,-2.939332,1.389654,103.039619,0,0,0
28647,977700000,2019,4,30,12,27,48,0,-0.049685,-0.018150,9.808463,-0.511731,0.070237,0.019657,-0.002639,0.000122,0.003518,0.676757,-0.143458,0.072826,-0.000497,-0.000179,0.098085,1.000000,-0.000013,0.000001,0.000018,-2.937835,1.388775,103.041794,0,0,0
28648,987700000,2019,4,30,12,27,48,0,-0.070378,-0.019192,9.798458,-0.507342,0.051885,0.008032,-0.005850,0.001716,-0.000056,0.676684,-0.146290,0.072807,-0.000702,-0.000186,0.097985,1.000000,-0.000029,0.000009,-0.000000,-2.938221,1.388704,103.039375,0,0,0
28649,997700000,2019,4,30,12,27,48,0,-0.064849,-0.003497,9.800185,-0.526182,0.056599,0.010914,-0.007038,0.006441,0.000737,0.673956,-0.143388,0.072593,-0.000642,-0.000028,0.098002,1.000000,-0.000035,0.000032,0.000004,-2.939282,1.391357,103.039757,0,0,0
28650,7700000,2019,4,30,12,27,49,0,-0.055938,-0.025100,9.808033,-0.504296,0.073145,0.021442,-0.006999,0.006291,0.000053,0.679796,-0.152433,0.065273,-0.000553,-0.000244,0.098080,1.000000,-0.000035,0.000031,0.000000,-2.940325,1.393901,103.037857,0,0,0
28651,17700000,2019,4,30,12,27,49,0,-0.061035,-0.018185,9.798233,-0.511535,0.063889,0.007740,-0.009501,0.005623,0.002374,0.690696,-0.152438,0.071359,-0.000605,-0.000173,0.097982,1.000000,-0.000048,0.000028,0.000012,-2.942775,1.396129,103.043823,0,0,0
28652,27700000,2019,4,30,12,27,49,0,-0.064968,-0.031453,9.811353,-0.497282,0.061632,0.021838,-0.007962,0.004049,0.002383,0.671075,-0.140350,0.074955,-0.000646,-0.000307,0.098114,1.000000,-0.000040,0.000020,0.000012,-2.944338,1.397454,103.046906,0,0,0
28653,37700000,2019,4,30,12,27,49,0,-0.053412,-0.038301,9.811636,-0.497862,0.075868,0.025078,-0.010976,0.002769,0.004369,0.671679,-0.135097,0.067261,-0.000531,-0.000372,0.098116,1.000000,-0.000055,0.000014,0.000022,-2.947593,1.398111,103.044617,0,0,0
28654,47700000,2019,4,30,12,27,49,0,-0.061694,-0.020384,9.812575,-0.513428,0.059737,0.021173,-0.009756,0.003142,0.000570,0.679637,-0.146496,0.070464,-0.000614,-0.000194,0.098126,1.000000,-0.000049,0.000016,0.000003,-2.950195,1.398873,103.037041,0,0,0
28655,57700000,2019,4,30,12,27,49,0,-0.064503,-0.010039,9.793429,-0.520853,0.059765,0.009258,-0.009395,0.001137,-0.001991,0.682585,-0.140903,0.070734,-0.000644,-0.000091,0.097934,1.000000,-0.000047,0.000006,-0.000010,-2.952631,1.398403,103.036545,0,0,0
28656,67700000,2019,4,30,12,27,49,0,-0.073454,-0.020279,9.795445,-0.515076,0.047450,0.006651,-0.008009,0.000763,0.001001,0.676842,-0.152226,0.067617,-0.000734,-0.000195,0.097954,1.000000,-0.000040,0.000004,0.000005,-2.954223,1.397813,103.032776,0,0,0
28657,77700000,2019,4,30,12,27,49,0,-0.052725,-0.020365,9.809258,-0.513383,0.075189,0.026150,-0.005756,0.002509,0.002186,0.685539,-0.141109,0.068390,-0.000525,-0.000198,0.098093,1.000000,-0.000029,0.000013,0.000011,-2.954510,1.398244,103.039864,0,0,0
28658,87700000,2019,4,30,12,27,49,0,-0.071486,-0.029413,9.816482,-0.504578,0.059263,0.030360,-0.003221,0.001847,0.001995,0.682213,-0.149261,0.073255,-0.000713,-0.000291,0.098165,1.000000,-0.000016,0.000009,0.000010,-2.953337,1.398299,103.035851,0,0,0
28659,97700000,2019,4,30,12,27,49,0,-0.047197,-0.023092,9.798421,-0.517833,0.076937,0.009284,-0.006143,0.000305,0.001907,0.679412,-0.149191,0.073022,-0.000472,-0.000225,0.097984,1.000000,-0.000031,0.000002,0.000010,-2.953846,1.397464,103.039047,0,0,0
28660,107700000,2019,4,30,12,27,49,0,-0.071850,-0.015025,9.789302,-0.517717,0.050556,0.004541,-0.007603,0.002990,-0.001263,0.682506,-0.137935,0.073329,-0.000716,-0.000143,0.097893,1.000000,-0.000038,0.000015,-0.000006,-2.955237,1.398072,103.040283,0,0,0
28661,117700000,2019,4,30,12,27,49,0,-0.067594,-0.020831,9.802531,-0.507006,0.057024,0.017515,-0.006163,0.005686,0.000194,0.674193,-0.152293,0.064807,-0.000670,-0.000202,0.098025,1.000000,-0.000031,0.000028,0.000001,-2.955767,1.400264,103.032791,0,0,0
28662,127700000,2019,4,30,12,27,49,0,-0.070454,-0.021347,9.810204,-0.515352,0.051029,0.023793,-0.008903,0.002114,0.001792,0.676757,-0.143458,0.072826,-0.000702,-0.000205,0.098102,1.000000,-0.000045,0.000011,0.000009,-2.957853,1.400457,103.040024,0,0,0
28663,137700000,2019,4,30,12,27,49,0,-0.059273,-0.016511,9.806798,-0.521181,0.062256,0.019457,-0.007918,0.007514,0.001495,0.682213,-0.149261,0.073255,-0.000585,-0.000157,0.098068,1.000000,-0.000040,0.000038,0.000007,-2.959373,1.403733,103.038322,0,0,0
28664,147700000,2019,4,30,12,27,49,0,-0.062877,-0.025726,9.801410,-0.508866,0.066931,0.012195,-0.011616,0.003626,0.000291,0.668286,-0.151880,0.069494,-0.000625,-0.000246,0.098014,1.000000,-0.000058,0.000018,0.000001,-2.963024,1.404745,103.039825,0,0,0
28665,157700000,2019,4,30,12,27,49,0,-0.053625,-0.022203,9.816962,-0.517113,0.071873,0.025387,-0.011269,0.005087,0.001105,0.678955,-0.148781,0.080753,-0.000531,-0.000211,0.098170,1.000000,-0.000056,0.000025,0.000006,-2.966457,1.406610,103.045738,0,0,0
28666,167700000,2019,4,30,12,27,49,0,-0.058266,-0.026843,9.814408,-0.514479,0.068341,0.022240,-0.011696,0.003131,0.002729,0.679716,-0.149464,0.067868,-0.000580,-0.000257,0.098144,1.000000,-0.000058,0.000016,0.000014,-2.970114,1.407414,103.047211,0,0,0
28667,177700000,2019,4,30,12,27,49,0,-0.048042,-0.024194,9.799829,-0.511880,0.076227,0.011539,-0.008332,-0.001438,-0.000473,0.673730,-0.146083,0.075151,-0.000482,-0.000234,0.097998,1.000000,-0.000042,-0.000007,-0.000002,-2.971894,1.405503,103.047897,0,0,0
28668,187700000,2019,4,30,12,27,49,0,-0.052458,-0.036912,9.779496,-0.497798,0.078470,-0.009122,-0.004709,0.001030,0.002569,0.676763,-0.149258,0.070212,-0.000524,-0.000365,0.097795,1.000000,-0.000024,0.000005,0.000013,-2.971549,1.405100,103.048225,0,0,0
28669,197700000,2019,4,30,12,27,49,0,-0.061037,-0.029162,9.807726,-0.510503,0.065394,0.017344,-0.005374,0.001206,0.003804,0.665771,-0.134684,0.071949,-0.000609,-0.000286,0.098077,1.000000,-0.000027,0.000006,0.000019,-2.971560,1.404826,103.051529,0,0,0
28670,207700000,2019,4,30,12,27,49,0,-0.072383,-0.023164,9.822637,-0.511689,0.056632,0.031879,-0.005177,0.005138,0.001006,0.682738,-0.141040,0.068157,-0.000719,-0.000227,0.098226,1.000000,-0.000026,0.000026,0.000005,-2.971495,1.406725,103.043671,0,0,0
28671,217700000,2019,4,30,12,27,49,0,-0.054145,-0.024182,9.813162,-0.513745,0.070745,0.019592,-0.007530,0.005466,0.000123,0.687663,-0.149263,0.076298,-0.000536,-0.000234,0.098132,1.000000,-0.000038,0.000027,0.000001,-2.972798,1.408786,103.038879,0,0,0
28672,227700000,2019,4,30,12,27,49,0,-0.049932,-0.025627,9.812268,-0.514088,0.073153,0.025905,-0.005751,0.004296,-0.000326,0.687889,-0.146569,0.073740,-0.000495,-0.000251,0.098123,1.000000,-0.000029,0.000021,-0.000002,-2.973076,1.410157,103.039551,0,0,0
28673,237700000,2019,4,30,12,27,49,0,-0.048052,-0.020062,9.784410,-0.525785,0.078068,-0.000183,-0.007921,0.004079,0.000400,0.676757,-0.143458,0.072826,-0.000477,-0.000193,0.097844,1.000000,-0.000040,0.000020,0.000002,-2.974598,1.411427,103.038414,0,0,0
28674,247700000,2019,4,30,12,27,49,0,-0.047881,-0.019317,9.799120,-0.525396,0.071291,0.009017,-0.010727,0.001991,0.004469,0.687957,-0.137937,0.076372,-0.000477,-0.000183,0.097991,1.000000,-0.000054,0.000010,0.000022,-2.977650,1.411619,103.039223,0,0,0
28675,257700000,2019,4,30,12,27,49,0,-0.055559,-0.031111,9.804362,-0.504611,0.075438,0.017072,-0.007413,0.000918,0.003874,0.687810,-0.143600,0.076335,-0.000555,-0.000304,0.098044,1.000000,-0.000037,0.000005,0.000019,-2.978809,1.411181,103.033798,0,0,0
28676,267700000,2019,4,30,12,27,49,0,-0.053934,-0.018681,9.815284,-0.522810,0.065578,0.025780,-0.010342,-0.000815,0.001320,0.682591,-0.146703,0.068120,-0.000540,-0.000177,0.098153,1.000000,-0.000052,-0.000004,0.000007,-2.981678,1.409672,103.032295,0,0,0
28677,277700000,2019,4,30,12,27,49,0,-0.050456,-0.047305,9.816900,-0.494619,0.088336,0.031018,-0.007127,0.002722,0.001251,0.679711,-0.143665,0.070482,-0.000502,-0.000466,0.098169,1.000000,-0.000036,0.000014,0.000006,-2.982713,1.410180,103.034309,0,0,0
28678,287700000,2019,4,30,12,27,49,0,-0.066019,-0.024451,9.800306,-0.512385,0.060700,0.010664,-0.006617,0.004884,0.000513,0.685094,-0.152299,0.070893,-0.000655,-0.000238,0.098003,1.000000,-0.000033,0.000024,0.000003,-2.983470,1.411907,103.033440,0,0,0
28679,297700000,2019,4,30,12,27,49,0,-0.069499,-0.047095,9.811187,-0.488404,0.063955,0.020552,-0.006429,0.005413,0.001525,0.687889,-0.146569,0.073740,-0.000690,-0.000465,0.098112,1.000000,-0.000032,0.000027,0.000008,-2.984097,1.413964,103.038651,0,0,0
28680,307700000,2019,4,30,12,27,49,0,-0.065609,-0.043608,9.802223,-0.490950,0.064021,0.013958,-0.006012,0.006237,0.000393,0.679711,-0.143665,0.070482,-0.000650,-0.000430,0.098022,1.000000,-0.000030,0.000031,0.000002,-2.984498,1.416456,103.037445,0,0,0
28681,317700000,2019,4,30,12,27,49,0,-0.063020,-0.015029,9.807458,-0.523043,0.062628,0.016377,-0.003742,0.005528,0.001405,0.670935,-0.151813,0.072304,-0.000625,-0.000147,0.098075,1.000000,-0.000019,0.000028,0.000007,-2.983582,1.418573,103.036232,0,0,0
28682,327700000,2019,4,30,12,27,49,0,-0.048414,0.034279,9.814023,-0.576732,0.071153,0.025522,-0.001851,0.001622,0.001710,0.685308,-0.138004,0.073562,-0.000483,0.000345,0.098140,1.000000,-0.000009,0.000008,0.000009,-2.981571,1.418461,103.042725,0,0,0
28683,337700000,2019,4,30,12,27,49,0,-0.079330,0.006443,9.784074,-0.543076,0.043143,-0.005880,-0.004309,0.001260,0.000846,0.674187,-0.146493,0.067421,-0.000792,0.000069,0.097841,1.000000,-0.000022,0.000006,0.000004,-2.980978,1.418119,103.035294,0,0,0
28684,347700000,2019,4,30,12,27,49,0,-0.066737,-0.040266,9.798281,-0.501480,0.065159,0.012630,-0.005295,-0.000618,0.002270,0.679790,-0.146633,0.067887,-0.000668,-0.000397,0.097983,1.000000,-0.000026,-0.000003,0.000011,-2.980923,1.416739,103.038162,0,0,0
28685,357700000,2019,4,30,12,27,49,0,-0.076517,-0.078000,9.826173,-0.457582,0.064035,0.042764,-0.011097,0.000534,0.000751,0.674114,-0.149325,0.067402,-0.000765,-0.000769,0.098262,1.000000,-0.000055,0.000003,0.000004,-2.984217,1.415976,103.038925,0,0,0
28686,367700000,2019,4,30,12,27,49,0,-0.043385,-0.053574,9.816997,-0.488654,0.083647,0.028562,-0.012384,-0.001188,0.001628,0.679412,-0.149191,0.073022,-0.000435,-0.000524,0.098170,1.000000,-0.000062,-0.000006,0.000008,-2.988242,1.414254,103.042923,0,0,0
28687,377700000,2019,4,30,12,27,49,0,-0.051461,-0.002570,9.802624,-0.535966,0.072936,0.012811,-0.014904,0.003206,0.000146,0.676751,-0.137658,0.075440,-0.000511,-0.000011,0.098026,1.000000,-0.000075,0.000016,0.000001,-2.993717,1.414990,103.044182,0,0,0
28688,387700000,2019,4,30,12,27,49,0,-0.035983,0.023968,9.798420,-0.567515,0.079423,0.004169,-0.007076,0.001670,0.001166,0.682445,-0.152366,0.068083,-0.000358,0.000247,0.097984,1.000000,-0.000035,0.000008,0.000006,-2.994700,1.414889,103.037704,0,0,0
28689,397700000,2019,4,30,12,27,49,0,-0.066013,-0.022785,9.814773,-0.518715,0.061764,0.022159,-0.006210,0.005842,0.002565,0.670776,-0.145876,0.077495,-0.000654,-0.000222,0.098148,1.000000,-0.000031,0.000029,0.000013,-2.995160,1.417211,103.043152,0,0,0
28690,407700000,2019,4,30,12,27,49,0,-0.065817,-0.030900,9.816683,-0.504816,0.066489,0.029489,-0.002870,0.005525,0.000136,0.679784,-0.140833,0.070501,-0.000653,-0.000306,0.098167,1.000000,-0.000014,0.000028,0.000001,-2.993739,1.419279,103.043114,0,0,0
28691,417700000,2019,4,30,12,27,49,0,-0.075732,-0.047407,9.804811,-0.495751,0.057360,0.016459,-0.005072,0.009318,-0.000961,0.690532,-0.140702,0.079163,-0.000748,-0.000469,0.098048,1.000000,-0.000025,0.000047,-0.000005,-2.993599,1.423485,103.037445,0,0,0
28692,427700000,2019,4,30,12,27,49,0,-0.046559,-0.034789,9.796301,-0.513101,0.081078,0.010393,-0.006598,0.003745,0.001308,0.665777,-0.140484,0.069335,-0.000462,-0.000341,0.097963,1.000000,-0.000033,0.000019,0.000007,-2.994295,1.424569,103.031914,0,0,0
28693,437700000,2019,4,30,12,27,49,0,-0.057840,-0.016186,9.808119,-0.526093,0.071783,0.023503,-0.004597,0.002111,0.000219,0.665478,-0.146010,0.071875,-0.000576,-0.000157,0.098081,1.000000,-0.000023,0.000011,0.000001,-2.993855,1.424685,103.030746,0,0,0
28694,447700000,2019,4,30,12,27,49,0,-0.073906,0.003191,9.807758,-0.538770,0.050288,0.019460,-0.006955,0.000786,0.001342,0.684789,-0.152025,0.076047,-0.000738,0.000039,0.098078,1.000000,-0.000035,0.000004,0.000007,-2.994742,1.424072,103.034248,0,0,0
28695,457700000,2019,4,30,12,27,49,0,-0.098494,-0.015755,9.825829,-0.524949,0.025534,0.035589,-0.007641,0.001548,-0.000520,0.676757,-0.143458,0.072826,-0.000983,-0.000150,0.098258,1.000000,-0.000038,0.000008,-0.000003,-2.996049,1.423840,103.037224,0,0,0
28696,467700000,2019,4,30,12,27,49,0,-0.064811,-0.008384,9.799234,-0.532281,0.061484,0.008662,-0.005704,-0.001002,0.001650,0.673809,-0.149051,0.072556,-0.000649,-0.000078,0.097992,1.000000,-0.000029,-0.000005,0.000008,-2.996220,1.422215,103.036011,0,0,0
28697,477700000,2019,4,30,12,27,49,0,-0.055165,-0.043308,9.789669,-0.505065,0.078414,0.001764,-0.010168,0.005624,0.002299,0.688115,-0.143874,0.071181,-0.000546,-0.000423,0.097897,1.000000,-0.000051,0.000028,0.000011,-2.998935,1.424401,103.039726,0,0,0
28698,487700000,2019,4,30,12,27,49,0,-0.049316,-0.022852,9.793653,-0.518393,0.078392,0.005992,-0.008545,0.006827,0.000598,0.676757,-0.143458,0.072826,-0.000486,-0.000220,0.097937,1.000000,-0.000043,0.000034,0.000003,-3.000741,1.427223,103.036064,0,0,0
28699,497700000,2019,4,30,12,27,49,0,-0.058357,-0.032285,9.810974,-0.514689,0.068126,0.023525,-0.008001,0.004980,-0.001528,0.676763,-0.149258,0.070212,-0.000579,-0.000315,0.098110,1.000000,-0.000040,0.000025,-0.000008,-3.002265,1.428923,103.033157,0,0,0
28700,507700000,2019,4,30,12,27,49,0,-0.066933,-0.009346,9.835629,-0.533773,0.055764,0.047772,-0.007624,0.002072,-0.001615,0.685398,-0.152572,0.065739,-0.000667,-0.000086,0.098356,1.000000,-0.000038,0.000010,-0.000008,-3.003565,1.428954,103.034767,0,0,0
28701,517700000,2019,4,30,12,27,49,0,-0.067052,-0.005448,9.806679,-0.537009,0.060757,0.015604,-0.007002,0.005802,0.002850,0.687883,-0.140769,0.076354,-0.000665,-0.000048,0.098067,1.000000,-0.000035,0.000029,0.000014,-3.004453,1.431252,103.039551,0,0,0
28702,527700000,2019,4,30,12,27,49,0,-0.060456,-0.024952,9.782469,-0.517413,0.070048,0.000130,-0.003895,0.003598,0.002217,0.685161,-0.143667,0.073525,-0.000601,-0.000246,0.097825,1.000000,-0.000019,0.000018,0.000011,-3.003555,1.432270,103.034096,0,0,0
28703,537700000,2019,4,30,12,27,49,0,-0.047249,-0.040611,9.784911,-0.504150,0.085594,-0.005911,-0.003403,0.003892,0.003680,0.685387,-0.140973,0.070967,-0.000469,-0.000403,0.097849,1.000000,-0.000017,0.000019,0.000018,-3.002364,1.433500,103.033142,0,0,0
28704,547700000,2019,4,30,12,27,49,0,-0.069795,-0.015067,9.812580,-0.519696,0.055789,0.020576,-0.004619,0.001919,0.000890,0.671002,-0.143182,0.074937,-0.000696,-0.000146,0.098126,1.000000,-0.000023,0.000010,0.000004,-3.001901,1.433513,103.029129,0,0,0
28705,557700000,2019,4,30,12,27,49,0,-0.056528,-0.019498,9.823086,-0.528448,0.074766,0.031409,-0.007753,-0.000273,0.000528,0.677062,-0.143732,0.067672,-0.000566,-0.000187,0.098231,1.000000,-0.000039,-0.000001,0.000003,-3.003236,1.432263,103.029182,0,0,0
28706,567700000,2019,4,30,12,27,49,0,-0.073334,-0.014063,9.816210,-0.523358,0.057590,0.026841,-0.006253,0.000677,-0.000999,0.674023,-0.134757,0.075225,-0.000733,-0.000134,0.098162,1.000000,-0.000031,0.000003,-0.000005,-3.003729,1.431508,103.027954,0,0,0
28707,577700000,2019,4,30,12,27,49,0,-0.085260,0.010174,9.819948,-0.551835,0.031967,0.035561,-0.007137,0.006042,0.003579,0.684935,-0.146362,0.076084,-0.000847,0.000109,0.098200,1.000000,-0.000036,0.000030,0.000018,-3.004661,1.433955,103.022812,0,0,0
28708,587700000,2019,4,30,12,27,49,0,-0.058586,-0.000885,9.796116,-0.536231,0.064623,0.009035,-0.005879,0.003633,0.000957,0.676610,-0.149121,0.072789,-0.000582,-0.000003,0.097961,1.000000,-0.000029,0.000018,0.000005,-3.004914,1.434951,103.023865,0,0,0
28709,597700000,2019,4,30,12,27,49,0,-0.057247,-0.034522,9.791052,-0.517823,0.072903,0.007305,-0.006344,0.001815,0.003504,0.682207,-0.143461,0.075869,-0.000571,-0.000339,0.097911,1.000000,-0.000032,0.000009,0.000018,-3.005391,1.434982,103.029396,0,0,0
28710,607700000,2019,4,30,12,27,49,0,-0.046268,-0.044510,9.807346,-0.505459,0.085028,0.017740,-0.009995,0.002186,-0.000108,0.682732,-0.135240,0.070771,-0.000461,-0.000435,0.098074,1.000000,-0.000050,0.000011,-0.000001,-3.008001,1.435114,103.027031,0,0,0
28711,617700000,2019,4,30,12,27,49,0,-0.045180,-0.040282,9.824796,-0.516877,0.088698,0.037992,-0.012593,0.002339,0.000195,0.679254,-0.143254,0.078213,-0.000450,-0.000390,0.098248,1.000000,-0.000063,0.000012,0.000001,-3.012088,1.435337,103.019386,0,0,0
28712,627700000,2019,4,30,12,27,49,0,-0.071232,-0.033407,9.839737,-0.512015,0.060281,0.048210,-0.012487,0.002942,-0.001575,0.674035,-0.146357,0.069998,-0.000709,-0.000322,0.098397,1.000000,-0.000062,0.000015,-0.000008,-3.016149,1.435857,103.017693,0,0,0
28713,637700000,2019,4,30,12,27,49,0,-0.067249,-0.009263,9.787574,-0.527269,0.063368,-0.001446,-0.012034,-0.000921,0.000061,0.676464,-0.154784,0.072752,-0.000673,-0.000081,0.097876,1.000000,-0.000060,-0.000005,0.000000,-3.019922,1.434214,103.020233,0,0,0
28714,647700000,2019,4,30,12,27,49,0,-0.050774,-0.003936,9.778789,-0.540147,0.074582,-0.005658,-0.008685,0.003697,0.000609,0.682963,-0.138345,0.065599,-0.000504,-0.000031,0.097788,1.000000,-0.000043,0.000018,0.000003,-3.021770,1.435230,103.027725,0,0,0
28715,657700000,2019,4,30,12,27,49,0,-0.049112,-0.027208,9.782969,-0.526877,0.081297,-0.010239,-0.005835,-0.000775,0.003181,0.679705,-0.137865,0.073096,-0.000492,-0.000266,0.097830,1.000000,-0.000029,-0.000004,0.000016,-3.021937,1.433757,103.023209,0,0,0
28716,667700000,2019,4,30,12,27,49,0,-0.067774,-0.047189,9.823900,-0.497971,0.068036,0.033389,-0.005246,0.002318,0.003434,0.682286,-0.146429,0.073274,-0.000675,-0.000467,0.098239,1.000000,-0.000026,0.000012,0.000017,-3.021764,1.434061,103.019524,0,0,0
28717,677700000,2019,4,30,12,27,49,0,-0.056943,-0.026234,9.858202,-0.518324,0.077735,0.068046,-0.005550,0.003669,-0.000058,0.667981,-0.151607,0.074648,-0.000566,-0.000257,0.098582,1.000000,-0.000028,0.000018,-0.000000,-3.021812,1.435037,103.020195,0,0,0
28718,687700000,2019,4,30,12,27,49,0,-0.052489,-0.029307,9.824459,-0.517682,0.076092,0.040401,-0.006634,0.005109,0.000700,0.671075,-0.140350,0.074955,-0.000520,-0.000287,0.098245,1.000000,-0.000033,0.000026,0.000004,-3.022467,1.436857,103.026596,0,0,0
28719,697700000,2019,4,30,12,27,49,0,-0.068476,0.007027,9.774385,-0.547022,0.059744,-0.009417,-0.007821,0.002332,0.003224,0.673956,-0.143388,0.072593,-0.000682,0.000078,0.097744,1.000000,-0.000039,0.000012,0.000016,-3.023760,1.437159,103.024963,0,0,0
28720,707700000,2019,4,30,12,27,49,0,-0.069328,-0.012743,9.761216,-0.531945,0.055894,-0.031171,-0.008810,0.003624,0.000485,0.687962,-0.143737,0.073758,-0.000690,-0.000119,0.097612,1.000000,-0.000044,0.000018,0.000002,-3.025661,1.438116,103.023979,0,0,0
28721,717700000,2019,4,30,12,27,49,0,-0.058406,-0.020323,9.806809,-0.530235,0.070532,0.017329,-0.010034,0.003310,0.000475,0.676531,-0.146153,0.075384,-0.000581,-0.000193,0.098068,1.000000,-0.000050,0.000017,0.000002,-3.028261,1.438893,103.021149,0,0,0
28722,727700000,2019,4,30,12,27,49,0,-0.046003,-0.045262,9.852549,-0.503336,0.089900,0.065589,-0.010816,0.004463,0.002202,0.676605,-0.143321,0.075403,-0.000456,-0.000442,0.098526,1.000000,-0.000054,0.000022,0.000011,-3.031281,1.440386,103.023003,0,0,0
28723,737700000,2019,4,30,12,27,49,0,-0.053261,-0.036799,9.839871,-0.516928,0.079735,0.050899,-0.013211,0.001860,0.000155,0.685923,-0.144351,0.060641,-0.000531,-0.000355,0.098399,1.000000,-0.000066,0.000009,0.000001,-3.035700,1.440323,103.021446,0,0,0
28724,747700000,2019,4,30,12,27,49,0,-0.063293,-0.018173,9.809822,-0.528005,0.064824,0.024691,-0.007918,0.002432,0.002474,0.688120,-0.149674,0.068568,-0.000631,-0.000174,0.098098,1.000000,-0.000040,0.000012,0.000012,-3.037052,1.440656,103.021263,0,0,0
28725,757700000,2019,4,30,12,27,49,0,-0.061335,0.004005,9.784682,-0.555071,0.062389,-0.004840,-0.009742,0.002536,-0.000455,0.682360,-0.143598,0.073292,-0.000611,0.000050,0.097847,1.000000,-0.000049,0.000013,-0.000002,-3.039481,1.440960,103.022560,0,0,0
28726,767700000,2019,4,30,12,27,49,0,-0.075053,-0.019820,9.790804,-0.519476,0.061807,0.001161,-0.002965,0.004125,0.001271,0.685167,-0.149467,0.070911,-0.000746,-0.000195,0.097908,1.000000,-0.000015,0.000021,0.000006,-3.038003,1.442224,103.020813,0,0,0
28727,777700000,2019,4,30,12,27,49,0,-0.070609,-0.035426,9.787078,-0.515966,0.055359,-0.004079,-0.005392,0.004314,-0.000485,0.676678,-0.140490,0.075421,-0.000702,-0.000349,0.097871,1.000000,-0.000027,0.000022,-0.000002,-3.037944,1.443546,103.022057,0,0,0
28728,787700000,2019,4,30,12,27,49,0,-0.047961,-0.043827,9.801749,-0.504286,0.089676,0.015677,-0.003044,0.006508,-0.000553,0.682433,-0.140766,0.073311,-0.000473,-0.000435,0.098018,1.000000,-0.000015,0.000033,-0.000003,-3.036528,1.446110,103.017616,0,0,0
28729,797700000,2019,4,30,12,27,49,0,-0.037290,-0.019466,9.824294,-0.549422,0.082334,0.036862,-0.005240,0.003534,0.002099,0.685009,-0.143531,0.076102,-0.000369,-0.000190,0.098243,1.000000,-0.000026,0.000018,0.000010,-3.036337,1.447054,103.014778,0,0,0
28730,807700000,2019,4,30,12,27,49,0,-0.073913,-0.017404,9.827118,-0.538152,0.053560,0.043324,-0.008300,0.001899,-0.000189,0.685088,-0.146499,0.073507,-0.000737,-0.000166,0.098271,1.000000,-0.000041,0.000009,-0.000001,-3.037930,1.447000,103.012589,0,0,0
28731,817700000,2019,4,30,12,27,49,0,-0.072771,-0.004585,9.814072,-0.539689,0.058355,0.031992,-0.008085,0.002533,0.002270,0.676616,-0.154921,0.070175,-0.000725,-0.000038,0.098141,1.000000,-0.000040,0.000013,0.000011,-3.039361,1.447378,103.014084,0,0,0
28732,827700000,2019,4,30,12,27,49,0,-0.068458,-0.048578,9.816178,-0.498297,0.069854,0.024666,-0.010020,0.000414,0.001546,0.679637,-0.146496,0.070464,-0.000684,-0.000476,0.098162,1.000000,-0.000050,0.000002,0.000008,-3.041899,1.446525,103.022179,0,0,0
28733,837700000,2019,4,30,12,27,49,0,-0.052359,-0.036715,9.789933,-0.515119,0.083078,0.005100,-0.013327,0.001533,0.000236,0.682512,-0.143734,0.070715,-0.000522,-0.000354,0.097899,1.000000,-0.000067,0.000008,0.000001,-3.046355,1.446268,103.021820,0,0,0
28734,847700000,2019,4,30,12,27,49,0,-0.041151,-0.046242,9.775150,-0.509048,0.090677,-0.021480,-0.013251,0.004249,0.000418,0.687816,-0.149400,0.073721,-0.000407,-0.000449,0.097752,1.000000,-0.000066,0.000021,0.000002,-3.050760,1.447565,103.019188,0,0,0
28735,857700000,2019,4,30,12,27,49,0,-0.055654,0.007193,9.812639,-0.557986,0.074101,0.021534,-0.009146,0.006322,-0.001565,0.682067,-0.154924,0.073218,-0.000550,0.000081,0.098126,1.000000,-0.000046,0.000032,-0.000008,-3.052853,1.449991,103.018730,0,0,0
28736,867700000,2019,4,30,12,27,49,0,-0.062844,0.032832,9.818692,-0.583651,0.059001,0.024576,-0.005615,0.006129,0.003761,0.676610,-0.149121,0.072789,-0.000622,0.000334,0.098187,1.000000,-0.000028,0.000031,0.000019,-3.052822,1.452470,103.025803,0,0,0
28737,877700000,2019,4,30,12,27,49,0,-0.070512,0.016294,9.810296,-0.564437,0.052710,0.023652,-0.003847,0.005931,0.000355,0.682518,-0.149534,0.068102,-0.000699,0.000167,0.098103,1.000000,-0.000019,0.000030,0.000002,-3.051834,1.454728,103.026810,0,0,0
28738,887700000,2019,4,30,12,27,49,0,-0.083832,-0.042431,9.806713,-0.515158,0.052729,0.019405,-0.005585,0.004073,-0.000201,0.679711,-0.143665,0.070482,-0.000834,-0.000419,0.098067,1.000000,-0.000028,0.000020,-0.000001,-3.051854,1.455907,103.026993,0,0,0
28739,897700000,2019,4,30,12,27,49,0,-0.041644,-0.056929,9.806822,-0.500524,0.091857,0.024316,-0.004416,0.002256,-0.000437,0.673882,-0.146220,0.072574,-0.000414,-0.000565,0.098068,1.000000,-0.000022,0.000011,-0.000002,-3.051194,1.456031,103.023308,0,0,0
28740,907700000,2019,4,30,12,27,49,0,-0.041316,-0.048771,9.799824,-0.502924,0.098837,0.010135,-0.007068,0.001675,0.002526,0.679637,-0.146496,0.070464,-0.000412,-0.000481,0.097998,1.000000,-0.000035,0.000008,0.000013,-3.052014,1.455918,103.024429,0,0,0
28741,917700000,2019,4,30,12,27,49,0,-0.037722,-0.024280,9.789291,-0.528559,0.087769,0.006494,-0.011671,-0.003336,0.000567,0.676988,-0.146563,0.067654,-0.000380,-0.000231,0.097893,1.000000,-0.000058,-0.000017,0.000003,-3.055487,1.452873,103.024017,0,0,0
28742,927700000,2019,4,30,12,27,49,0,-0.071648,0.020367,9.741230,-0.573021,0.050080,-0.046527,-0.013130,-0.000349,0.000483,0.668494,-0.131786,0.074777,-0.000717,0.000216,0.097412,1.000000,-0.000066,-0.000002,0.000002,-3.059800,1.451535,103.024101,0,0,0
28743,937700000,2019,4,30,12,27,49,0,-0.171068,-0.042916,9.714296,-0.491742,-0.030536,-0.083899,-0.011344,0.002714,0.001386,0.671233,-0.146287,0.069764,-0.001708,-0.000418,0.097143,1.000000,-0.000057,0.000014,0.000007,-3.063075,1.451963,103.015358,0,0,0
28744,947700000,2019,4,30,12,27,49,0,-0.012041,0.103892,9.897755,-0.664111,0.088586,0.079851,-0.006484,0.000729,0.003012,0.674108,-0.143525,0.070016,-0.000120,0.001045,0.098977,1.000000,-0.000032,0.000004,0.000015,-3.063534,1.451321,103.018883,0,0,0
28745,957700000,2019,4,30,12,27,49,0,-0.092033,-0.063557,10.027390,-0.496804,0.060528,0.241136,-0.008201,0.011526,0.003010,0.682140,-0.152092,0.073237,-0.000909,-0.000627,0.100274,1.000000,-0.000041,0.000058,0.000015,-3.064984,1.456853,103.019318,0,0,0
28746,967700000,2019,4,30,12,27,49,0,-0.027898,-0.069169,9.788394,-0.493239,0.096902,0.030126,-0.008250,0.004929,0.002771,0.671160,-0.149118,0.069746,-0.000274,-0.000684,0.097884,1.000000,-0.000041,0.000025,0.000014,-3.066459,1.458607,103.024406,0,0,0
28747,977700000,2019,4,30,12,27,49,0,-0.007060,-0.091603,9.685009,-0.477489,0.132321,-0.103721,-0.014562,-0.000118,0.001207,0.685466,-0.143941,0.068372,-0.000071,-0.000902,0.096850,1.000000,-0.000073,-0.000001,0.000006,-3.071563,1.457421,103.027718,0,0,0
28748,987700000,2019,4,30,12,27,49,0,-0.049175,-0.065065,9.753815,-0.475662,0.090010,-0.037004,-0.007938,0.001186,0.001254,0.685161,-0.143667,0.073525,-0.000491,-0.000643,0.097538,1.000000,-0.000040,0.000006,0.000006,-3.072879,1.456974,103.024887,0,0,0
28749,997700000,2019,4,30,12,27,49,0,-0.065333,0.063741,9.687549,-0.601760,0.051911,-0.102151,-0.010223,0.002111,-0.000735,0.679412,-0.149191,0.073022,-0.000651,0.000647,0.096875,1.000000,-0.000051,0.000011,-0.000004,-3.075533,1.456995,103.021103,0,0,0
28750,7700000,2019,4,30,12,27,50,0,-0.063287,0.049592,9.785576,-0.607097,0.050995,-0.024517,-0.003856,0.003510,0.001059,0.687889,-0.146569,0.073740,-0.000629,0.000500,0.097856,1.000000,-0.000019,0.000018,0.000005,-3.074498,1.457874,103.023407,0,0,0
28751,17700000,2019,4,30,12,27,50,0,-0.076396,-0.062163,10.005408,-0.507366,0.064158,0.207484,-0.000044,0.001498,0.002505,0.679784,-0.140833,0.070501,-0.000762,-0.000622,0.100054,1.000000,-0.000000,0.000007,0.000013,-3.071262,1.457645,103.023148,0,0,0
28752,27700000,2019,4,30,12,27,50,0,-0.034502,-0.086080,9.952025,-0.494939,0.115455,0.164573,-0.002961,0.003143,0.000553,0.684862,-0.149194,0.076065,-0.000342,-0.000858,0.099520,1.000000,-0.000015,0.000016,0.000003,-3.069715,1.458288,103.019272,0,0,0
28753,37700000,2019,4,30,12,27,50,0,-0.026627,-0.112673,9.759494,-0.454866,0.134516,-0.022917,-0.008402,0.007439,-0.000214,0.679259,-0.149054,0.075599,-0.000259,-0.001119,0.097595,1.000000,-0.000042,0.000037,-0.000001,-3.071309,1.461375,103.020203,0,0,0
28754,47700000,2019,4,30,12,27,50,0,-0.046026,-0.047844,9.658350,-0.498460,0.092721,-0.122823,-0.010985,0.002166,0.004173,0.668201,-0.143112,0.074703,-0.000458,-0.000468,0.096584,1.000000,-0.000055,0.000011,0.000021,-3.074310,1.461578,103.024170,0,0,0
28755,57700000,2019,4,30,12,27,50,0,-0.048486,0.061610,9.662743,-0.605092,0.052899,-0.130818,-0.009924,-0.004828,-0.002630,0.679333,-0.146223,0.075617,-0.000490,0.000626,0.096627,1.000000,-0.000050,-0.000024,-0.000013,-3.076792,1.457564,103.021645,0,0,0
28756,67700000,2019,4,30,12,27,50,0,-0.110677,0.047924,9.862034,-0.596521,0.006831,0.060776,-0.008347,-0.000006,0.000429,0.676909,-0.143595,0.070249,-0.001107,0.000487,0.098620,1.000000,-0.000042,-0.000000,0.000002,-3.078326,1.456402,103.021301,0,0,0
28757,77700000,2019,4,30,12,27,50,0,-0.093441,-0.030915,9.930774,-0.533967,0.035542,0.145633,-0.005719,0.003296,0.002427,0.676909,-0.143595,0.070249,-0.000931,-0.000303,0.099308,1.000000,-0.000029,0.000016,0.000012,-3.078323,1.457191,103.020813,0,0,0
28758,87700000,2019,4,30,12,27,50,0,-0.056676,-0.052609,9.826310,-0.508452,0.078779,0.048725,-0.006669,0.006181,0.002067,0.687737,-0.146432,0.076317,-0.000561,-0.000520,0.098263,1.000000,-0.000033,0.000031,0.000010,-3.078867,1.459616,103.020203,0,0,0
28759,97700000,2019,4,30,12,27,50,0,-0.051873,-0.062001,9.819973,-0.493193,0.083740,0.027319,-0.006719,0.006652,0.002360,0.679558,-0.143528,0.073059,-0.000512,-0.000613,0.098200,1.000000,-0.000034,0.000033,0.000012,-3.079442,1.462322,103.020035,0,0,0
28760,107700000,2019,4,30,12,27,50,0,-0.048681,-0.009127,9.769921,-0.543894,0.074425,-0.018960,-0.007874,0.004714,0.000316,0.684868,-0.154994,0.073451,-0.000482,-0.000084,0.097699,1.000000,-0.000039,0.000024,0.000002,-3.080699,1.463853,103.018150,0,0,0
28761,117700000,2019,4,30,12,27,50,0,0.005124,0.001419,9.720346,-0.573726,0.128677,-0.071875,-0.005693,0.001931,0.000709,0.682286,-0.146429,0.073274,0.000053,0.000020,0.097203,1.000000,-0.000028,0.000010,0.000004,-3.080696,1.463809,103.023781,0,0,0
28762,127700000,2019,4,30,12,27,50,0,-0.057490,-0.010741,9.782494,-0.552016,0.085533,-0.017902,-0.007815,0.000887,0.003828,0.682738,-0.141040,0.068157,-0.000574,-0.000100,0.097825,1.000000,-0.000039,0.000004,0.000019,-3.081856,1.463253,103.024788,0,0,0
28763,137700000,2019,4,30,12,27,50,0,-0.104419,-0.033597,9.847943,-0.514160,0.034866,0.056923,-0.005399,0.001229,0.001225,0.671002,-0.143182,0.074937,-0.001043,-0.000331,0.098479,1.000000,-0.000027,0.000006,0.000006,-3.081669,1.462805,103.020882,0,0,0
28764,147700000,2019,4,30,12,27,50,0,-0.106513,-0.043210,9.840807,-0.505736,0.030200,0.052006,-0.005390,0.006178,0.001858,0.671081,-0.146150,0.072341,-0.001059,-0.000427,0.098408,1.000000,-0.000027,0.000031,0.000009,-3.081467,1.465215,103.020744,0,0,0
28765,157700000,2019,4,30,12,27,50,0,-0.049819,-0.044430,9.852856,-0.514317,0.084980,0.071798,-0.005524,0.007520,0.001474,0.679637,-0.146496,0.070464,-0.000491,-0.000439,0.098529,1.000000,-0.000028,0.000038,0.000007,-3.081344,1.468384,103.022461,0,0,0
28766,167700000,2019,4,30,12,27,50,0,0.006136,0.007518,9.799365,-0.578520,0.125113,0.010211,-0.007283,0.007910,0.000495,0.685094,-0.152299,0.070893,0.000069,0.000082,0.097994,1.000000,-0.000036,0.000040,0.000002,-3.082245,1.471744,103.022385,0,0,0
28767,177700000,2019,4,30,12,27,50,0,-0.044194,-0.007822,9.756219,-0.549624,0.089243,-0.033380,-0.007292,0.003311,0.000671,0.662903,-0.143246,0.069084,-0.000439,-0.000071,0.097562,1.000000,-0.000036,0.000017,0.000003,-3.083139,1.472482,103.025635,0,0,0
28768,187700000,2019,4,30,12,27,50,0,-0.098299,-0.034324,9.794885,-0.514527,0.046526,0.006854,-0.009239,0.002807,0.002427,0.665473,-0.140211,0.074489,-0.000980,-0.000334,0.097949,1.000000,-0.000046,0.000014,0.000012,-3.085124,1.472978,103.026421,0,0,0
28769,197700000,2019,4,30,12,27,50,0,-0.120657,-0.033151,9.808816,-0.512754,0.016678,0.019414,-0.006630,0.002275,0.002358,0.674029,-0.140557,0.072611,-0.001204,-0.000325,0.098088,1.000000,-0.000033,0.000011,0.000012,-3.085608,1.473162,103.024567,0,0,0
28770,207700000,2019,4,30,12,27,50,0,-0.069980,0.012889,9.802000,-0.565133,0.059127,0.010248,-0.009875,0.003757,0.001548,0.682286,-0.146429,0.073274,-0.000696,0.000139,0.098020,1.000000,-0.000049,0.000019,0.000008,-3.087964,1.474167,103.021759,0,0,0
28771,217700000,2019,4,30,12,27,50,0,-0.025191,-0.003837,9.818639,-0.560272,0.102495,0.024047,-0.002949,0.001883,0.002527,0.670935,-0.151813,0.072304,-0.000250,-0.000035,0.098186,1.000000,-0.000015,0.000009,0.000013,-3.086330,1.474136,103.022835,0,0,0
28772,227700000,2019,4,30,12,27,50,0,-0.019934,-0.013320,9.796173,-0.556645,0.108981,0.005000,-0.005917,0.003925,0.000412,0.670855,-0.148845,0.074900,-0.000195,-0.000127,0.097962,1.000000,-0.000030,0.000020,0.000002,-3.086423,1.475214,103.027794,0,0,0
28773,237700000,2019,4,30,12,27,50,0,-0.051371,-0.056986,9.807281,-0.505626,0.093752,0.021913,-0.006056,-0.002316,0.001073,0.679716,-0.149464,0.067868,-0.000516,-0.000564,0.098073,1.000000,-0.000030,-0.000012,0.000005,-3.086581,1.472731,103.030319,0,0,0
28774,247700000,2019,4,30,12,27,50,0,-0.091756,-0.042339,9.796402,-0.512198,0.041639,0.012924,-0.006893,0.000448,0.002282,0.685014,-0.149330,0.073488,-0.000917,-0.000417,0.097964,1.000000,-0.000034,0.000002,0.000011,-3.087205,1.471871,103.032539,0,0,0
28775,257700000,2019,4,30,12,27,50,0,-0.082172,-0.012052,9.785839,-0.543259,0.046167,0.000221,-0.008936,0.005013,0.003109,0.673663,-0.154714,0.072519,-0.000817,-0.000112,0.097858,1.000000,-0.000045,0.000025,0.000016,-3.088988,1.473643,103.033852,0,0,0
28776,267700000,2019,4,30,12,27,50,0,-0.049819,0.011628,9.799070,-0.570719,0.074627,0.005540,-0.006836,0.005040,0.001809,0.685161,-0.143667,0.073525,-0.000493,0.000123,0.097991,1.000000,-0.000034,0.000025,0.000009,-3.089586,1.475401,103.039726,0,0,0
28777,277700000,2019,4,30,12,27,50,0,-0.043079,-0.004881,9.825393,-0.563051,0.088110,0.037262,-0.007512,0.002152,0.002506,0.679637,-0.146496,0.070464,-0.000429,-0.000041,0.098254,1.000000,-0.000038,0.000011,0.000013,-3.090559,1.475505,103.036194,0,0,0
28778,287700000,2019,4,30,12,27,50,0,-0.034306,-0.026231,9.823750,-0.543977,0.095911,0.036437,-0.009157,0.003576,0.000019,0.676464,-0.154784,0.072752,-0.000340,-0.000253,0.098238,1.000000,-0.000046,0.000018,0.000000,-3.092500,1.476353,103.034836,0,0,0
28779,297700000,2019,4,30,12,27,50,0,-0.096074,-0.051826,9.826241,-0.508133,0.044276,0.040357,-0.008985,0.004635,-0.000007,0.685014,-0.149330,0.073488,-0.000956,-0.000509,0.098262,1.000000,-0.000045,0.000023,-0.000000,-3.094344,1.477816,103.039551,0,0,0
28780,307700000,2019,4,30,12,27,50,0,-0.074678,-0.013819,9.783807,-0.536941,0.059156,-0.003860,-0.009150,0.006629,-0.000492,0.685003,-0.137731,0.078716,-0.000740,-0.000129,0.097838,1.000000,-0.000046,0.000033,-0.000002,-3.096288,1.480393,103.038208,0,0,0
28781,317700000,2019,4,30,12,27,50,0,-0.051076,-0.012909,9.771787,-0.550914,0.075967,-0.020755,-0.010335,0.000819,0.002915,0.682518,-0.149534,0.068102,-0.000510,-0.000119,0.097718,1.000000,-0.000052,0.000004,0.000015,-3.098859,1.479735,103.031204,0,0,0
28782,327700000,2019,4,30,12,27,50,0,-0.040429,0.006839,9.798965,-0.569335,0.088945,0.009740,-0.006110,0.001299,-0.000207,0.685313,-0.143804,0.070948,-0.000403,0.000074,0.097990,1.000000,-0.000031,0.000006,-0.000001,-3.099052,1.479275,103.032509,0,0,0
28783,337700000,2019,4,30,12,27,50,0,-0.051370,-0.020606,9.821140,-0.545694,0.079627,0.030787,-0.006221,0.001782,0.001179,0.682134,-0.146292,0.075850,-0.000512,-0.000200,0.098211,1.000000,-0.000031,0.000009,0.000006,-3.099275,1.479123,103.029907,0,0,0
28784,347700000,2019,4,30,12,27,50,0,-0.069153,-0.039386,9.831704,-0.524337,0.066096,0.041603,-0.004998,0.003481,0.002393,0.684710,-0.149057,0.078642,-0.000688,-0.000389,0.098317,1.000000,-0.000025,0.000017,0.000012,-3.098780,1.479983,103.030365,0,0,0
28785,357700000,2019,4,30,12,27,50,0,-0.084006,-0.039557,9.837077,-0.518339,0.056436,0.048585,-0.006976,0.005571,0.000884,0.682365,-0.149397,0.070678,-0.000835,-0.000389,0.098371,1.000000,-0.000035,0.000028,0.000004,-3.099445,1.481997,103.031250,0,0,0
28786,367700000,2019,4,30,12,27,50,0,-0.054519,-0.023736,9.807812,-0.534946,0.077769,0.020100,-0.008742,0.001898,-0.000671,0.682585,-0.140903,0.070734,-0.000543,-0.000229,0.098078,1.000000,-0.000044,0.000009,-0.000003,-3.101147,1.481865,103.032028,0,0,0
28787,377700000,2019,4,30,12,27,50,0,-0.053512,0.020907,9.768174,-0.583225,0.070809,-0.017826,-0.008656,0.004438,-0.000271,0.679339,-0.152022,0.073004,-0.000531,0.000218,0.097682,1.000000,-0.000043,0.000022,-0.000001,-3.102780,1.483175,103.026962,0,0,0
28788,387700000,2019,4,30,12,27,50,0,-0.054205,-0.012861,9.789894,-0.552352,0.077858,-0.002421,-0.006907,0.001309,0.003339,0.679936,-0.140970,0.067924,-0.000541,-0.000122,0.097899,1.000000,-0.000035,0.000007,0.000017,-3.103349,1.482828,103.032570,0,0,0
28789,397700000,2019,4,30,12,27,50,0,-0.084770,-0.035199,9.807052,-0.525429,0.052029,0.015358,-0.007869,0.004894,0.001143,0.676306,-0.148848,0.077943,-0.000843,-0.000344,0.098071,1.000000,-0.000039,0.000024,0.000006,-3.104503,1.484444,103.028816,0,0,0
28790,407700000,2019,4,30,12,27,50,0,-0.065338,-0.048581,9.840660,-0.507354,0.078201,0.052667,-0.009466,0.001923,0.000970,0.668060,-0.154575,0.072053,-0.000651,-0.000476,0.098407,1.000000,-0.000047,0.000010,0.000005,-3.106567,1.484369,103.031029,0,0,0
28791,417700000,2019,4,30,12,27,50,0,-0.060534,-0.031550,9.807621,-0.536006,0.083235,0.014941,-0.011359,0.004844,0.000904,0.679485,-0.146359,0.073041,-0.000601,-0.000304,0.098076,1.000000,-0.000057,0.000024,0.000005,-3.109724,1.485975,103.037895,0,0,0
28792,427700000,2019,4,30,12,27,50,0,-0.048256,0.014715,9.791857,-0.569721,0.078719,-0.003599,-0.008194,0.001942,-0.000130,0.671307,-0.143455,0.069783,-0.000481,0.000155,0.097919,1.000000,-0.000041,0.000010,-0.000001,-3.111075,1.485863,103.036011,0,0,0
28793,437700000,2019,4,30,12,27,50,0,-0.068561,0.007751,9.784822,-0.567727,0.059456,-0.003143,-0.007243,0.003126,0.000669,0.668646,-0.131923,0.072200,-0.000683,0.000085,0.097848,1.000000,-0.000036,0.000016,0.000003,-3.111867,1.486453,103.034180,0,0,0
28794,447700000,2019,4,30,12,27,50,0,-0.079008,-0.042883,9.801326,-0.520749,0.058988,0.008544,-0.005120,0.001119,0.002148,0.679485,-0.146359,0.073041,-0.000789,-0.000424,0.098013,1.000000,-0.000026,0.000006,0.000011,-3.111423,1.485925,103.026291,0,0,0
28795,457700000,2019,4,30,12,27,50,0,-0.059078,-0.053066,9.804810,-0.512441,0.079854,0.019874,-0.004895,0.003837,0.000488,0.676836,-0.146426,0.070231,-0.000587,-0.000526,0.098048,1.000000,-0.000024,0.000019,0.000002,-3.110862,1.486919,103.026802,0,0,0
28796,467700000,2019,4,30,12,27,50,0,-0.058813,-0.044034,9.795668,-0.515640,0.076916,0.014494,-0.008655,0.005678,0.000703,0.682365,-0.149397,0.070678,-0.000583,-0.000432,0.097957,1.000000,-0.000043,0.000028,0.000004,-3.112452,1.488973,103.027664,0,0,0
28797,477700000,2019,4,30,12,27,50,0,-0.039742,-0.017397,9.821773,-0.547469,0.095695,0.029971,-0.009290,0.005689,-0.000153,0.681988,-0.151955,0.075814,-0.000392,-0.000165,0.098218,1.000000,-0.000046,0.000028,-0.000001,-3.114417,1.491006,103.028969,0,0,0
28798,487700000,2019,4,30,12,27,50,0,-0.046611,-0.017289,9.814204,-0.546834,0.086983,0.031075,-0.008234,0.001600,0.001797,0.679716,-0.149464,0.067868,-0.000465,-0.000165,0.098142,1.000000,-0.000041,0.000008,0.000009,-3.115739,1.490765,103.032654,0,0,0
28799,497700000,2019,4,30,12,27,50,0,-0.073060,0.005885,9.806586,-0.569187,0.054078,0.013200,-0.007208,0.001199,0.000418,0.682512,-0.143734,0.070715,-0.000729,0.000066,0.098066,1.000000,-0.000036,0.000006,0.000002,-3.116494,1.490244,103.033989,0,0,0
28800,507700000,2019,4,30,12,27,50,0,-0.072705,-0.043312,9.809237,-0.519819,0.073056,0.024081,-0.006643,0.003253,0.001169,0.673657,-0.148915,0.075133,-0.000724,-0.000427,0.098092,1.000000,-0.000033,0.000016,0.000006,-3.116916,1.490912,103.031212,0,0,0
28801,517700000,2019,4,30,12,27,50,0,-0.044476,-0.038857,9.789214,-0.531345,0.087812,0.000942,-0.008154,0.001412,0.001359,0.676769,-0.155058,0.067598,-0.000443,-0.000381,0.097892,1.000000,-0.000041,0.000007,0.000007,-3.118196,1.490541,103.033600,0,0,0
28802,527700000,2019,4,30,12,27,50,0,-0.055255,-0.042057,9.792156,-0.523113,0.082451,0.001608,-0.010864,0.002912,0.000746,0.677067,-0.149531,0.065059,-0.000550,-0.000410,0.097922,1.000000,-0.000054,0.000015,0.000004,-3.121027,1.491017,103.039116,0,0,0
28803,537700000,2019,4,30,12,27,50,0,-0.051943,-0.029766,9.805472,-0.540353,0.079913,0.018367,-0.008621,0.000697,0.002490,0.688047,-0.152505,0.068549,-0.000519,-0.000289,0.098055,1.000000,-0.000043,0.000003,0.000012,-3.122553,1.490270,103.041245,0,0,0
28804,547700000,2019,4,30,12,27,50,0,-0.071208,-0.018398,9.813393,-0.541608,0.065076,0.020117,-0.006357,0.002948,-0.001423,0.679564,-0.149328,0.070445,-0.000709,-0.000178,0.098134,1.000000,-0.000032,0.000015,-0.000007,-3.122839,1.490688,103.041260,0,0,0
28805,557700000,2019,4,30,12,27,50,0,-0.089065,0.007032,9.822861,-0.567585,0.039182,0.030317,-0.005767,0.003833,0.001081,0.687816,-0.149400,0.073721,-0.000887,0.000076,0.098229,1.000000,-0.000029,0.000019,0.000005,-3.122734,1.491683,103.041603,0,0,0
28806,567700000,2019,4,30,12,27,50,0,-0.081636,-0.006314,9.798655,-0.552809,0.056681,0.010807,-0.003709,0.005086,-0.000731,0.688115,-0.143874,0.071181,-0.000811,-0.000060,0.097987,1.000000,-0.000019,0.000025,-0.000004,-3.121476,1.493330,103.039726,0,0,0
28807,577700000,2019,4,30,12,27,50,0,-0.052090,-0.006124,9.798934,-0.557348,0.075967,0.011581,-0.004849,0.002949,0.003021,0.688036,-0.140906,0.073777,-0.000518,-0.000057,0.097989,1.000000,-0.000024,0.000015,0.000015,-3.120825,1.493868,103.036789,0,0,0
28808,587700000,2019,4,30,12,27,50,0,-0.050113,-0.024997,9.794115,-0.541978,0.085609,0.004298,-0.007060,0.004187,0.000054,0.685313,-0.143804,0.070948,-0.000497,-0.000243,0.097941,1.000000,-0.000035,0.000021,0.000000,-3.121482,1.495016,103.030861,0,0,0
28809,597700000,2019,4,30,12,27,50,0,-0.045704,-0.027961,9.828456,-0.535660,0.099063,0.042089,-0.006105,-0.000870,-0.000551,0.679716,-0.149464,0.067868,-0.000458,-0.000274,0.098285,1.000000,-0.000031,-0.000004,-0.000003,-3.121593,1.493260,103.028053,0,0,0
28810,607700000,2019,4,30,12,27,50,0,-0.064091,-0.036586,9.819908,-0.525075,0.075275,0.029810,-0.010226,0.000275,0.003445,0.674260,-0.143662,0.067439,-0.000641,-0.000356,0.098199,1.000000,-0.000051,0.000001,0.000017,-3.123999,1.492300,103.032372,0,0,0
28811,617700000,2019,4,30,12,27,50,0,-0.068266,-0.005020,9.806660,-0.551725,0.065456,0.020133,-0.005044,0.001389,0.002843,0.688041,-0.146705,0.071163,-0.000681,-0.000045,0.098067,1.000000,-0.000025,0.000007,0.000014,-3.123431,1.491940,103.032745,0,0,0
28812,627700000,2019,4,30,12,27,50,0,-0.065818,0.004407,9.800286,-0.571310,0.064042,0.009836,-0.007505,0.006175,0.002608,0.670929,-0.146013,0.074918,-0.000652,0.000051,0.098003,1.000000,-0.000038,0.000031,0.000013,-3.124282,1.494310,103.032837,0,0,0
28813,637700000,2019,4,30,12,27,50,0,-0.065885,-0.009094,9.800527,-0.553181,0.063958,0.006387,-0.006739,0.001029,0.000899,0.685466,-0.143941,0.068372,-0.000658,-0.000084,0.098005,1.000000,-0.000034,0.000005,0.000004,-3.124718,1.493696,103.033936,0,0,0
28814,647700000,2019,4,30,12,27,50,0,-0.040526,-0.035063,9.806828,-0.538225,0.097289,0.016120,-0.006295,0.006134,0.002499,0.681920,-0.160587,0.073181,-0.000399,-0.000344,0.098068,1.000000,-0.000031,0.000031,0.000012,-3.124880,1.496035,103.032532,0,0,0
28815,657700000,2019,4,30,12,27,50,0,-0.040169,-0.037298,9.797343,-0.530683,0.102109,0.001815,-0.007125,0.003963,0.002956,0.674102,-0.137725,0.072630,-0.000398,-0.000366,0.097973,1.000000,-0.000036,0.000020,0.000015,-3.125498,1.497180,103.042831,0,0,0
28816,667700000,2019,4,30,12,27,50,0,-0.062729,-0.035365,9.816009,-0.531823,0.081088,0.031717,-0.007877,0.001512,0.001228,0.679485,-0.146359,0.073041,-0.000626,-0.000346,0.098160,1.000000,-0.000039,0.000008,0.000006,-3.126569,1.496816,103.036919,0,0,0
28817,677700000,2019,4,30,12,27,50,0,-0.070350,-0.005302,9.821335,-0.553712,0.063118,0.030627,-0.005051,-0.000431,0.004558,0.668810,-0.143659,0.064396,-0.000704,-0.000048,0.098213,1.000000,-0.000025,-0.000002,0.000023,-3.125959,1.495462,103.038872,0,0,0
28818,687700000,2019,4,30,12,27,50,0,-0.059247,-0.012799,9.800744,-0.551648,0.073034,0.005615,-0.009291,0.004090,0.002240,0.671380,-0.140624,0.069801,-0.000588,-0.000119,0.098007,1.000000,-0.000046,0.000020,0.000011,-3.127826,1.496624,103.039452,0,0,0
28819,697700000,2019,4,30,12,27,50,0,-0.069232,0.001254,9.798934,-0.563190,0.059040,0.011402,-0.006536,0.001789,0.001842,0.674023,-0.134757,0.075225,-0.000691,0.000019,0.097989,1.000000,-0.000033,0.000009,0.000009,-3.128116,1.496449,103.037376,0,0,0
28820,707700000,2019,4,30,12,27,50,0,-0.053094,-0.040696,9.800368,-0.527808,0.088424,0.010842,-0.005785,0.003336,0.001410,0.676830,-0.140627,0.072844,-0.000528,-0.000401,0.098004,1.000000,-0.000029,0.000017,0.000007,-3.127980,1.497128,103.031044,0,0,0
28821,717700000,2019,4,30,12,27,50,0,-0.040105,-0.047482,9.807663,-0.520848,0.102424,0.025814,-0.006660,0.000661,0.000326,0.679637,-0.146496,0.070464,-0.000400,-0.000468,0.098077,1.000000,-0.000033,0.000003,0.000002,-3.128355,1.496258,103.028687,0,0,0
28822,727700000,2019,4,30,12,27,50,0,-0.063877,-0.041335,9.824306,-0.522779,0.075390,0.033387,-0.011582,0.003320,-0.000320,0.679626,-0.134896,0.075691,-0.000636,-0.000402,0.098243,1.000000,-0.000058,0.000017,-0.000002,-3.131557,1.496901,103.029579,0,0,0
28823,737700000,2019,4,30,12,27,50,0,-0.092684,-0.018817,9.807051,-0.537896,0.038553,0.012990,-0.008831,0.004631,0.002968,0.679790,-0.146633,0.067887,-0.000922,-0.000180,0.098071,1.000000,-0.000044,0.000023,0.000015,-3.133132,1.498365,103.024208,0,0,0
28824,747700000,2019,4,30,12,27,50,0,-0.072045,-0.031886,9.804615,-0.555977,0.070357,0.010151,-0.011152,0.006357,-0.000004,0.671008,-0.148982,0.072323,-0.000714,-0.000308,0.098046,1.000000,-0.000056,0.000032,-0.000000,-3.136074,1.500750,103.025864,0,0,0
28825,757700000,2019,4,30,12,27,50,0,-0.046393,-0.021910,9.799857,-0.565476,0.098589,0.005771,-0.007508,0.005737,0.003658,0.682213,-0.149261,0.073255,-0.000458,-0.000212,0.097999,1.000000,-0.000038,0.000029,0.000018,-3.136881,1.502906,103.031578,0,0,0
28826,767700000,2019,4,30,12,27,50,0,-0.055747,-0.007518,9.795449,-0.569101,0.097028,0.008412,-0.007136,0.005247,0.001615,0.685392,-0.146772,0.068353,-0.000552,-0.000068,0.097955,1.000000,-0.000036,0.000026,0.000008,-3.137493,1.504708,103.033844,0,0,0
28827,777700000,2019,4,30,12,27,50,0,-0.075918,-0.037566,9.790919,-0.524663,0.067499,0.016362,-0.007364,0.002568,0.002122,0.687968,-0.149537,0.071145,-0.000757,-0.000368,0.097909,1.000000,-0.000037,0.000013,0.000011,-3.138227,1.504985,103.034233,0,0,0
28828,787700000,2019,4,30,12,27,50,0,-0.089874,-0.062711,9.808178,-0.497356,0.039610,0.039886,-0.007114,0.000572,-0.000268,0.673961,-0.149188,0.069979,-0.000898,-0.000620,0.098082,1.000000,-0.000036,0.000003,-0.000001,-3.138855,1.504047,103.034630,0,0,0
28829,797700000,2019,4,30,12,27,50,0,-0.077905,-0.062864,9.809173,-0.492324,0.038722,0.057285,-0.009970,-0.000478,0.001907,0.682365,-0.149397,0.070678,-0.000780,-0.000619,0.098092,1.000000,-0.000050,-0.000002,0.000010,-3.141076,1.502580,103.037834,0,0,0
28830,807700000,2019,4,30,12,27,50,0,-0.035018,-0.029573,9.823854,-0.525428,0.077712,0.063731,-0.009328,0.001127,-0.000479,0.682738,-0.141040,0.068157,-0.000349,-0.000287,0.098239,1.000000,-0.000047,0.000006,-0.000002,-3.142970,1.501954,103.038124,0,0,0
28831,817700000,2019,4,30,12,27,50,0,-0.018670,-0.012820,9.783613,-0.552661,0.100417,-0.001453,-0.006142,0.000740,0.000233,0.673961,-0.149188,0.069979,-0.000186,-0.000122,0.097836,1.000000,-0.000031,0.000004,0.000001,-3.143023,1.501106,103.033424,0,0,0
28832,827700000,2019,4,30,12,27,50,0,-0.193642,-0.317253,9.803018,-0.276559,0.027123,-0.004947,-0.014179,0.001153,0.000770,0.682506,-0.137935,0.073329,-0.001935,-0.003159,0.098031,1.000000,-0.000071,0.000006,0.000004,-3.147673,1.500536,103.036087,0,0,0
28833,837700000,2019,4,30,12,27,50,0,0.043616,-0.031577,9.841069,-0.600655,0.221564,0.003296,-0.013551,0.004717,-0.000350,0.684935,-0.146362,0.076084,0.000441,-0.000302,0.098411,1.000000,-0.000068,0.000024,-0.000002,-3.151981,1.501934,103.029037,0,0,0
28834,847700000,2019,4,30,12,27,50,0,0.017059,0.334011,9.851999,-0.925945,0.139193,0.016794,-0.003880,0.003914,0.001672,0.674041,-0.152156,0.067384,0.000174,0.003344,0.098520,1.000000,-0.000019,0.000020,0.000008,-3.150722,1.502959,103.029175,0,0,0
28835,857700000,2019,4,30,12,27,50,0,-0.123331,0.327708,9.656330,-0.864110,-0.053905,-0.110319,0.011108,0.007390,0.000762,0.676537,-0.151953,0.072771,-0.001226,0.003266,0.096564,1.000000,0.000056,0.000037,0.000004,-3.140875,1.505961,103.034119,0,0,0
28836,867700000,2019,4,30,12,27,50,0,-0.125068,0.021884,9.653903,-0.557492,-0.052962,-0.099946,0.015159,0.004021,0.004907,0.684935,-0.146362,0.076084,-0.001247,0.000204,0.096539,1.000000,0.000076,0.000020,0.000025,-3.128626,1.507159,103.039925,0,0,0
28837,877700000,2019,4,30,12,27,50,0,-0.114594,-0.367462,9.961912,-0.178432,0.026420,0.223929,0.000484,-0.000997,0.004631,0.679485,-0.146359,0.073041,-0.001147,-0.003675,0.099619,1.000000,0.000002,-0.000005,0.000023,-3.124790,1.505461,103.040314,0,0,0
28838,887700000,2019,4,30,12,27,50,0,0.029730,-0.242342,10.008610,-0.305685,0.197752,0.274823,-0.016438,-0.001285,0.001384,0.679716,-0.149464,0.067868,0.000296,-0.002407,0.100086,1.000000,-0.000082,-0.000006,0.000007,-3.130692,1.503495,103.040077,0,0,0
